"width","height","webaudio","browser","browser_version","mobile","os","fullscreen","vsync_rate","webcam","microphone","trial_type","trial_index","plugin_version","time_elapsed","participant_id","Source","condition","success","rt","view_history","trialnum","blocknum","stimulus","response","leftDots","rightDots","baseline","increment","correct_key","target_left","current_log","correct","value","phase","dot_difference","slider_start","confidence"
"1190","464","true","chrome","135.0.0","false","Windows 10","true","59.95","false","true","browser-check","0","2.1.0","1010","5fec594488f057dbd3bdec07","Prolific","0","","","","","","","","","","","","","","","","","","","",""
"","","","","","","","","","","","fullscreen","1","2.1.0","7107","5fec594488f057dbd3bdec07","Prolific","0","true","5092","","","","","","","","","","","","","","","","","",""
"","","","","","","","","","","","instructions","2","2.1.0","11462","5fec594488f057dbd3bdec07","Prolific","0","","4353","[{""page_index"":0,""viewing_time"":4353}]","","","","","","","","","","","","","","","","",""
"","","","","","","","","","","","instructions","5","2.1.0","40311","5fec594488f057dbd3bdec07","Prolific","0","","28847","[{""page_index"":0,""viewing_time"":21283},{""page_index"":1,""viewing_time"":7564}]","","","","","","","","","","","","","","","","",""
"","","","","","","","","","","","html-keyboard-response","7","2.1.0","41327","5fec594488f057dbd3bdec07","Prolific","0","","null","","1","1","<p style=""font-size: 70pt;"">+</p>","null","","","","","","","","","","","","",""
"","","","","","","","","","","","Stimulus Presentation","8","2.1.0","41639","5fec594488f057dbd3bdec07","Prolific","0","","null","","1","1","","null","313","383","313","70","e","false","4.25","","","","","",""
"","","","","","","","","","","","Stimulus Response","9","2.1.0","42315","5fec594488f057dbd3bdec07","Prolific","0","","675","","1","1","","e","","","","","","","","1","","","","",""
"","","","","","","","","","","","Feedback","10","2.1.0","42820","5fec594488f057dbd3bdec07","Prolific","0","","null","","1","1","","null","","","","","","","","","","","","",""
"","","","","","","","","","","","Summary Trial","12","2.1.0","42838","5fec594488f057dbd3bdec07","Prolific","0","","675","","1","1","","e","313","383","","","","false","4.25","1","","Practice","70","",""
"","","","","","","","","","","","html-keyboard-response","14","2.1.0","43843","5fec594488f057dbd3bdec07","Prolific","0","","null","","2","1","<p style=""font-size: 70pt;"">+</p>","null","","","","","","","","","","","","",""
"","","","","","","","","","","","Stimulus Presentation","15","2.1.0","44154","5fec594488f057dbd3bdec07","Prolific","0","","null","","2","1","","null","383","313","313","70","w","true","4.25","","","","","",""
"","","","","","","","","","","","Stimulus Response","16","2.1.0","44666","5fec594488f057dbd3bdec07","Prolific","0","","511","","2","1","","w","","","","","","","","1","","","","",""
"","","","","","","","","","","","Feedback","17","2.1.0","45169","5fec594488f057dbd3bdec07","Prolific","0","","null","","2","1","","null","","","","","","","","","","","","",""
"","","","","","","","","","","","Summary Trial","19","2.1.0","45170","5fec594488f057dbd3bdec07","Prolific","0","","511","","2","1","","w","383","313","","","","true","4.25","1","","Practice","70","",""
"","","","","","","","","","","","html-keyboard-response","21","2.1.0","46181","5fec594488f057dbd3bdec07","Prolific","0","","null","","3","1","<p style=""font-size: 70pt;"">+</p>","null","","","","","","","","","","","","",""
"","","","","","","","","","","","Stimulus Presentation","22","2.1.0","46494","5fec594488f057dbd3bdec07","Prolific","0","","null","","3","1","","null","313","360","313","47","e","false","3.85","","","","","",""
"","","","","","","","","","","","Stimulus Response","23","2.1.0","46963","5fec594488f057dbd3bdec07","Prolific","0","","467","","3","1","","w","","","","","","","","0","","","","",""
"","","","","","","","","","","","Feedback","24","2.1.0","47474","5fec594488f057dbd3bdec07","Prolific","0","","null","","3","1","","null","","","","","","","","","","","","",""
"","","","","","","","","","","","Summary Trial","26","2.1.0","47475","5fec594488f057dbd3bdec07","Prolific","0","","467","","3","1","","w","313","360","","","","false","3.85","0","","Practice","47","",""
"","","","","","","","","","","","html-keyboard-response","28","2.1.0","48488","5fec594488f057dbd3bdec07","Prolific","0","","null","","4","1","<p style=""font-size: 70pt;"">+</p>","null","","","","","","","","","","","","",""
"","","","","","","","","","","","Stimulus Presentation","29","2.1.0","48800","5fec594488f057dbd3bdec07","Prolific","0","","null","","4","1","","null","383","313","313","70","w","true","4.25","","","","","",""
"","","","","","","","","","","","Stimulus Response","30","2.1.0","49291","5fec594488f057dbd3bdec07","Prolific","0","","489","","4","1","","e","","","","","","","","0","","","","",""
"","","","","","","","","","","","Feedback","31","2.1.0","49802","5fec594488f057dbd3bdec07","Prolific","0","","null","","4","1","","null","","","","","","","","","","","","",""
"","","","","","","","","","","","Summary Trial","33","2.1.0","49803","5fec594488f057dbd3bdec07","Prolific","0","","489","","4","1","","e","383","313","","","","true","4.25","0","","Practice","70","",""
"","","","","","","","","","","","html-keyboard-response","35","2.1.0","50815","5fec594488f057dbd3bdec07","Prolific","0","","null","","5","1","<p style=""font-size: 70pt;"">+</p>","null","","","","","","","","","","","","",""
"","","","","","","","","","","","Stimulus Presentation","36","2.1.0","51127","5fec594488f057dbd3bdec07","Prolific","0","","null","","5","1","","null","418","313","313","105","w","true","4.65","","","","","",""
"","","","","","","","","","","","Stimulus Response","37","2.1.0","51507","5fec594488f057dbd3bdec07","Prolific","0","","378","","5","1","","e","","","","","","","","0","","","","",""
"","","","","","","","","","","","Feedback","38","2.1.0","52015","5fec594488f057dbd3bdec07","Prolific","0","","null","","5","1","","null","","","","","","","","","","","","",""
"","","","","","","","","","","","Summary Trial","40","2.1.0","52016","5fec594488f057dbd3bdec07","Prolific","0","","378","","5","1","","e","418","313","","","","true","4.65","0","","Practice","105","",""
"","","","","","","","","","","","html-keyboard-response","42","2.1.0","53028","5fec594488f057dbd3bdec07","Prolific","0","","null","","6","1","<p style=""font-size: 70pt;"">+</p>","null","","","","","","","","","","","","",""
"","","","","","","","","","","","Stimulus Presentation","43","2.1.0","53339","5fec594488f057dbd3bdec07","Prolific","0","","null","","6","1","","null","313","469","313","156","e","false","5.050000000000001","","","","","",""
"","","","","","","","","","","","Stimulus Response","44","2.1.0","53611","5fec594488f057dbd3bdec07","Prolific","0","","271","","6","1","","e","","","","","","","","1","","","","",""
"","","","","","","","","","","","Feedback","45","2.1.0","54118","5fec594488f057dbd3bdec07","Prolific","0","","null","","6","1","","null","","","","","","","","","","","","",""
"","","","","","","","","","","","Summary Trial","47","2.1.0","54118","5fec594488f057dbd3bdec07","Prolific","0","","271","","6","1","","e","313","469","","","","false","5.050000000000001","1","","Practice","156","",""
"","","","","","","","","","","","html-keyboard-response","49","2.1.0","55125","5fec594488f057dbd3bdec07","Prolific","0","","null","","7","1","<p style=""font-size: 70pt;"">+</p>","null","","","","","","","","","","","","",""
"","","","","","","","","","","","Stimulus Presentation","50","2.1.0","55437","5fec594488f057dbd3bdec07","Prolific","0","","null","","7","1","","null","313","469","313","156","e","false","5.050000000000001","","","","","",""
"","","","","","","","","","","","Stimulus Response","51","2.1.0","55778","5fec594488f057dbd3bdec07","Prolific","0","","340","","7","1","","e","","","","","","","","1","","","","",""
"","","","","","","","","","","","Feedback","52","2.1.0","56289","5fec594488f057dbd3bdec07","Prolific","0","","null","","7","1","","null","","","","","","","","","","","","",""
"","","","","","","","","","","","Summary Trial","54","2.1.0","56290","5fec594488f057dbd3bdec07","Prolific","0","","340","","7","1","","e","313","469","","","","false","5.050000000000001","1","","Practice","156","",""
"","","","","","","","","","","","html-keyboard-response","56","2.1.0","57296","5fec594488f057dbd3bdec07","Prolific","0","","null","","8","1","<p style=""font-size: 70pt;"">+</p>","null","","","","","","","","","","","","",""
"","","","","","","","","","","","Stimulus Presentation","57","2.1.0","57604","5fec594488f057dbd3bdec07","Prolific","0","","null","","8","1","","null","441","313","313","128","w","true","4.8500000000000005","","","","","",""
"","","","","","","","","","","","Stimulus Response","58","2.1.0","58035","5fec594488f057dbd3bdec07","Prolific","0","","429","","8","1","","w","","","","","","","","1","","","","",""
"","","","","","","","","","","","Feedback","59","2.1.0","58536","5fec594488f057dbd3bdec07","Prolific","0","","null","","8","1","","null","","","","","","","","","","","","",""
"","","","","","","","","","","","Summary Trial","61","2.1.0","58537","5fec594488f057dbd3bdec07","Prolific","0","","429","","8","1","","w","441","313","","","","true","4.8500000000000005","1","","Practice","128","",""
"","","","","","","","","","","","html-keyboard-response","63","2.1.0","59549","5fec594488f057dbd3bdec07","Prolific","0","","null","","9","1","<p style=""font-size: 70pt;"">+</p>","null","","","","","","","","","","","","",""
"","","","","","","","","","","","Stimulus Presentation","64","2.1.0","59858","5fec594488f057dbd3bdec07","Prolific","0","","null","","9","1","","null","313","441","313","128","e","false","4.8500000000000005","","","","","",""
"","","","","","","","","","","","Stimulus Response","65","2.1.0","60179","5fec594488f057dbd3bdec07","Prolific","0","","320","","9","1","","e","","","","","","","","1","","","","",""
"","","","","","","","","","","","Feedback","66","2.1.0","60684","5fec594488f057dbd3bdec07","Prolific","0","","null","","9","1","","null","","","","","","","","","","","","",""
"","","","","","","","","","","","Summary Trial","68","2.1.0","60685","5fec594488f057dbd3bdec07","Prolific","0","","320","","9","1","","e","313","441","","","","false","4.8500000000000005","1","","Practice","128","",""
"","","","","","","","","","","","html-keyboard-response","70","2.1.0","61694","5fec594488f057dbd3bdec07","Prolific","0","","null","","10","1","<p style=""font-size: 70pt;"">+</p>","null","","","","","","","","","","","","",""
"","","","","","","","","","","","Stimulus Presentation","71","2.1.0","62003","5fec594488f057dbd3bdec07","Prolific","0","","null","","10","1","","null","418","313","313","105","w","true","4.65","","","","","",""
"","","","","","","","","","","","Stimulus Response","72","2.1.0","62388","5fec594488f057dbd3bdec07","Prolific","0","","383","","10","1","","w","","","","","","","","1","","","","",""
"","","","","","","","","","","","Feedback","73","2.1.0","62895","5fec594488f057dbd3bdec07","Prolific","0","","null","","10","1","","null","","","","","","","","","","","","",""
"","","","","","","","","","","","Summary Trial","75","2.1.0","62895","5fec594488f057dbd3bdec07","Prolific","0","","383","","10","1","","w","418","313","","","","true","4.65","1","","Practice","105","",""
"","","","","","","","","","","","html-keyboard-response","77","2.1.0","63908","5fec594488f057dbd3bdec07","Prolific","0","","null","","11","1","<p style=""font-size: 70pt;"">+</p>","null","","","","","","","","","","","","",""
"","","","","","","","","","","","Stimulus Presentation","78","2.1.0","64220","5fec594488f057dbd3bdec07","Prolific","0","","null","","11","1","","null","418","313","313","105","w","true","4.65","","","","","",""
"","","","","","","","","","","","Stimulus Response","79","2.1.0","64874","5fec594488f057dbd3bdec07","Prolific","0","","652","","11","1","","w","","","","","","","","1","","","","",""
"","","","","","","","","","","","Feedback","80","2.1.0","65387","5fec594488f057dbd3bdec07","Prolific","0","","null","","11","1","","null","","","","","","","","","","","","",""
"","","","","","","","","","","","Summary Trial","82","2.1.0","65388","5fec594488f057dbd3bdec07","Prolific","0","","652","","11","1","","w","418","313","","","","true","4.65","1","","Practice","105","",""
"","","","","","","","","","","","html-keyboard-response","84","2.1.0","66399","5fec594488f057dbd3bdec07","Prolific","0","","null","","12","1","<p style=""font-size: 70pt;"">+</p>","null","","","","","","","","","","","","",""
"","","","","","","","","","","","Stimulus Presentation","85","2.1.0","66725","5fec594488f057dbd3bdec07","Prolific","0","","null","","12","1","","null","313","408","313","95","e","false","4.550000000000001","","","","","",""
"","","","","","","","","","","","Stimulus Response","86","2.1.0","67171","5fec594488f057dbd3bdec07","Prolific","0","","445","","12","1","","e","","","","","","","","1","","","","",""
"","","","","","","","","","","","Feedback","87","2.1.0","67684","5fec594488f057dbd3bdec07","Prolific","0","","null","","12","1","","null","","","","","","","","","","","","",""
"","","","","","","","","","","","Summary Trial","89","2.1.0","67685","5fec594488f057dbd3bdec07","Prolific","0","","445","","12","1","","e","313","408","","","","false","4.550000000000001","1","","Practice","95","",""
"","","","","","","","","","","","html-keyboard-response","91","2.1.0","68694","5fec594488f057dbd3bdec07","Prolific","0","","null","","13","1","<p style=""font-size: 70pt;"">+</p>","null","","","","","","","","","","","","",""
"","","","","","","","","","","","Stimulus Presentation","92","2.1.0","69004","5fec594488f057dbd3bdec07","Prolific","0","","null","","13","1","","null","313","408","313","95","e","false","4.550000000000001","","","","","",""
"","","","","","","","","","","","Stimulus Response","93","2.1.0","69571","5fec594488f057dbd3bdec07","Prolific","0","","565","","13","1","","e","","","","","","","","1","","","","",""
"","","","","","","","","","","","Feedback","94","2.1.0","70075","5fec594488f057dbd3bdec07","Prolific","0","","null","","13","1","","null","","","","","","","","","","","","",""
"","","","","","","","","","","","Summary Trial","96","2.1.0","70076","5fec594488f057dbd3bdec07","Prolific","0","","565","","13","1","","e","313","408","","","","false","4.550000000000001","1","","Practice","95","",""
"","","","","","","","","","","","html-keyboard-response","98","2.1.0","71084","5fec594488f057dbd3bdec07","Prolific","0","","null","","14","1","<p style=""font-size: 70pt;"">+</p>","null","","","","","","","","","","","","",""
"","","","","","","","","","","","Stimulus Presentation","99","2.1.0","71396","5fec594488f057dbd3bdec07","Prolific","0","","null","","14","1","","null","399","313","313","86","w","true","4.450000000000001","","","","","",""
"","","","","","","","","","","","Stimulus Response","100","2.1.0","71643","5fec594488f057dbd3bdec07","Prolific","0","","245","","14","1","","w","","","","","","","","1","","","","",""
"","","","","","","","","","","","Feedback","101","2.1.0","72153","5fec594488f057dbd3bdec07","Prolific","0","","null","","14","1","","null","","","","","","","","","","","","",""
"","","","","","","","","","","","Summary Trial","103","2.1.0","72154","5fec594488f057dbd3bdec07","Prolific","0","","245","","14","1","","w","399","313","","","","true","4.450000000000001","1","","Practice","86","",""
"","","","","","","","","","","","html-keyboard-response","105","2.1.0","73167","5fec594488f057dbd3bdec07","Prolific","0","","null","","15","1","<p style=""font-size: 70pt;"">+</p>","null","","","","","","","","","","","","",""
"","","","","","","","","","","","Stimulus Presentation","106","2.1.0","73479","5fec594488f057dbd3bdec07","Prolific","0","","null","","15","1","","null","313","399","313","86","e","false","4.450000000000001","","","","","",""
"","","","","","","","","","","","Stimulus Response","107","2.1.0","73970","5fec594488f057dbd3bdec07","Prolific","0","","490","","15","1","","e","","","","","","","","1","","","","",""
"","","","","","","","","","","","Feedback","108","2.1.0","74472","5fec594488f057dbd3bdec07","Prolific","0","","null","","15","1","","null","","","","","","","","","","","","",""
"","","","","","","","","","","","Summary Trial","110","2.1.0","74472","5fec594488f057dbd3bdec07","Prolific","0","","490","","15","1","","e","313","399","","","","false","4.450000000000001","1","","Practice","86","",""
"","","","","","","","","","","","html-keyboard-response","112","2.1.0","75489","5fec594488f057dbd3bdec07","Prolific","0","","null","","16","1","<p style=""font-size: 70pt;"">+</p>","null","","","","","","","","","","","","",""
"","","","","","","","","","","","Stimulus Presentation","113","2.1.0","75802","5fec594488f057dbd3bdec07","Prolific","0","","null","","16","1","","null","390","313","313","77","w","true","4.350000000000001","","","","","",""
"","","","","","","","","","","","Stimulus Response","114","2.1.0","76275","5fec594488f057dbd3bdec07","Prolific","0","","472","","16","1","","w","","","","","","","","1","","","","",""
"","","","","","","","","","","","Feedback","115","2.1.0","76785","5fec594488f057dbd3bdec07","Prolific","0","","null","","16","1","","null","","","","","","","","","","","","",""
"","","","","","","","","","","","Summary Trial","117","2.1.0","76786","5fec594488f057dbd3bdec07","Prolific","0","","472","","16","1","","w","390","313","","","","true","4.350000000000001","1","","Practice","77","",""
"","","","","","","","","","","","html-keyboard-response","119","2.1.0","77796","5fec594488f057dbd3bdec07","Prolific","0","","null","","17","1","<p style=""font-size: 70pt;"">+</p>","null","","","","","","","","","","","","",""
"","","","","","","","","","","","Stimulus Presentation","120","2.1.0","78107","5fec594488f057dbd3bdec07","Prolific","0","","null","","17","1","","null","390","313","313","77","w","true","4.350000000000001","","","","","",""
"","","","","","","","","","","","Stimulus Response","121","2.1.0","78922","5fec594488f057dbd3bdec07","Prolific","0","","813","","17","1","","e","","","","","","","","0","","","","",""
"","","","","","","","","","","","Feedback","122","2.1.0","79432","5fec594488f057dbd3bdec07","Prolific","0","","null","","17","1","","null","","","","","","","","","","","","",""
"","","","","","","","","","","","Summary Trial","124","2.1.0","79433","5fec594488f057dbd3bdec07","Prolific","0","","813","","17","1","","e","390","313","","","","true","4.350000000000001","0","","Practice","77","",""
"","","","","","","","","","","","html-keyboard-response","126","2.1.0","80441","5fec594488f057dbd3bdec07","Prolific","0","","null","","18","1","<p style=""font-size: 70pt;"">+</p>","null","","","","","","","","","","","","",""
"","","","","","","","","","","","Stimulus Presentation","127","2.1.0","80753","5fec594488f057dbd3bdec07","Prolific","0","","null","","18","1","","null","313","399","313","86","e","false","4.450000000000001","","","","","",""
"","","","","","","","","","","","Stimulus Response","128","2.1.0","81162","5fec594488f057dbd3bdec07","Prolific","0","","408","","18","1","","e","","","","","","","","1","","","","",""
"","","","","","","","","","","","Feedback","129","2.1.0","81674","5fec594488f057dbd3bdec07","Prolific","0","","null","","18","1","","null","","","","","","","","","","","","",""
"","","","","","","","","","","","Summary Trial","131","2.1.0","81675","5fec594488f057dbd3bdec07","Prolific","0","","408","","18","1","","e","313","399","","","","false","4.450000000000001","1","","Practice","86","",""
"","","","","","","","","","","","html-keyboard-response","133","2.1.0","82682","5fec594488f057dbd3bdec07","Prolific","0","","null","","19","1","<p style=""font-size: 70pt;"">+</p>","null","","","","","","","","","","","","",""
"","","","","","","","","","","","Stimulus Presentation","134","2.1.0","82995","5fec594488f057dbd3bdec07","Prolific","0","","null","","19","1","","null","399","313","313","86","w","true","4.450000000000001","","","","","",""
"","","","","","","","","","","","Stimulus Response","135","2.1.0","83443","5fec594488f057dbd3bdec07","Prolific","0","","446","","19","1","","w","","","","","","","","1","","","","",""
"","","","","","","","","","","","Feedback","136","2.1.0","83946","5fec594488f057dbd3bdec07","Prolific","0","","null","","19","1","","null","","","","","","","","","","","","",""
"","","","","","","","","","","","Summary Trial","138","2.1.0","83946","5fec594488f057dbd3bdec07","Prolific","0","","446","","19","1","","w","399","313","","","","true","4.450000000000001","1","","Practice","86","",""
"","","","","","","","","","","","html-keyboard-response","140","2.1.0","84959","5fec594488f057dbd3bdec07","Prolific","0","","null","","20","1","<p style=""font-size: 70pt;"">+</p>","null","","","","","","","","","","","","",""
"","","","","","","","","","","","Stimulus Presentation","141","2.1.0","85271","5fec594488f057dbd3bdec07","Prolific","0","","null","","20","1","","null","313","390","313","77","e","false","4.350000000000001","","","","","",""
"","","","","","","","","","","","Stimulus Response","142","2.1.0","85675","5fec594488f057dbd3bdec07","Prolific","0","","403","","20","1","","e","","","","","","","","1","","","","",""
"","","","","","","","","","","","Feedback","143","2.1.0","86186","5fec594488f057dbd3bdec07","Prolific","0","","null","","20","1","","null","","","","","","","","","","","","",""
"","","","","","","","","","","","Summary Trial","145","2.1.0","86187","5fec594488f057dbd3bdec07","Prolific","0","","403","","20","1","","e","313","390","","","","false","4.350000000000001","1","","Practice","77","",""
"","","","","","","","","","","","html-keyboard-response","147","2.1.0","87197","5fec594488f057dbd3bdec07","Prolific","0","","null","","21","1","<p style=""font-size: 70pt;"">+</p>","null","","","","","","","","","","","","",""
"","","","","","","","","","","","Stimulus Presentation","148","2.1.0","87510","5fec594488f057dbd3bdec07","Prolific","0","","null","","21","1","","null","313","390","313","77","e","false","4.350000000000001","","","","","",""
"","","","","","","","","","","","Stimulus Response","149","2.1.0","87915","5fec594488f057dbd3bdec07","Prolific","0","","404","","21","1","","e","","","","","","","","1","","","","",""
"","","","","","","","","","","","Feedback","150","2.1.0","88428","5fec594488f057dbd3bdec07","Prolific","0","","null","","21","1","","null","","","","","","","","","","","","",""
"","","","","","","","","","","","Summary Trial","152","2.1.0","88428","5fec594488f057dbd3bdec07","Prolific","0","","404","","21","1","","e","313","390","","","","false","4.350000000000001","1","","Practice","77","",""
"","","","","","","","","","","","html-keyboard-response","154","2.1.0","89439","5fec594488f057dbd3bdec07","Prolific","0","","null","","22","1","<p style=""font-size: 70pt;"">+</p>","null","","","","","","","","","","","","",""
"","","","","","","","","","","","Stimulus Presentation","155","2.1.0","89751","5fec594488f057dbd3bdec07","Prolific","0","","null","","22","1","","null","383","313","313","70","w","true","4.250000000000002","","","","","",""
"","","","","","","","","","","","Stimulus Response","156","2.1.0","90403","5fec594488f057dbd3bdec07","Prolific","0","","650","","22","1","","w","","","","","","","","1","","","","",""
"","","","","","","","","","","","Feedback","157","2.1.0","90931","5fec594488f057dbd3bdec07","Prolific","0","","null","","22","1","","null","","","","","","","","","","","","",""
"","","","","","","","","","","","Summary Trial","159","2.1.0","90931","5fec594488f057dbd3bdec07","Prolific","0","","650","","22","1","","w","383","313","","","","true","4.250000000000002","1","","Practice","70","",""
"","","","","","","","","","","","html-keyboard-response","161","2.1.0","91939","5fec594488f057dbd3bdec07","Prolific","0","","null","","23","1","<p style=""font-size: 70pt;"">+</p>","null","","","","","","","","","","","","",""
"","","","","","","","","","","","Stimulus Presentation","162","2.1.0","92251","5fec594488f057dbd3bdec07","Prolific","0","","null","","23","1","","null","313","383","313","70","e","false","4.250000000000002","","","","","",""
"","","","","","","","","","","","Stimulus Response","163","2.1.0","92578","5fec594488f057dbd3bdec07","Prolific","0","","325","","23","1","","e","","","","","","","","1","","","","",""
"","","","","","","","","","","","Feedback","164","2.1.0","93092","5fec594488f057dbd3bdec07","Prolific","0","","null","","23","1","","null","","","","","","","","","","","","",""
"","","","","","","","","","","","Summary Trial","166","2.1.0","93093","5fec594488f057dbd3bdec07","Prolific","0","","325","","23","1","","e","313","383","","","","false","4.250000000000002","1","","Practice","70","",""
"","","","","","","","","","","","html-keyboard-response","168","2.1.0","94105","5fec594488f057dbd3bdec07","Prolific","0","","null","","24","1","<p style=""font-size: 70pt;"">+</p>","null","","","","","","","","","","","","",""
"","","","","","","","","","","","Stimulus Presentation","169","2.1.0","94415","5fec594488f057dbd3bdec07","Prolific","0","","null","","24","1","","null","376","313","313","63","w","true","4.150000000000002","","","","","",""
"","","","","","","","","","","","Stimulus Response","170","2.1.0","95042","5fec594488f057dbd3bdec07","Prolific","0","","626","","24","1","","e","","","","","","","","0","","","","",""
"","","","","","","","","","","","Feedback","171","2.1.0","95556","5fec594488f057dbd3bdec07","Prolific","0","","null","","24","1","","null","","","","","","","","","","","","",""
"","","","","","","","","","","","Summary Trial","173","2.1.0","95557","5fec594488f057dbd3bdec07","Prolific","0","","626","","24","1","","e","376","313","","","","true","4.150000000000002","0","","Practice","63","",""
"","","","","","","","","","","","html-keyboard-response","175","2.1.0","96565","5fec594488f057dbd3bdec07","Prolific","0","","null","","25","1","<p style=""font-size: 70pt;"">+</p>","null","","","","","","","","","","","","",""
"","","","","","","","","","","","Stimulus Presentation","176","2.1.0","96877","5fec594488f057dbd3bdec07","Prolific","0","","null","","25","1","","null","313","383","313","70","e","false","4.250000000000002","","","","","",""
"","","","","","","","","","","","Stimulus Response","177","2.1.0","97331","5fec594488f057dbd3bdec07","Prolific","0","","453","","25","1","","e","","","","","","","","1","","","","",""
"","","","","","","","","","","","Feedback","178","2.1.0","97839","5fec594488f057dbd3bdec07","Prolific","0","","null","","25","1","","null","","","","","","","","","","","","",""
"","","","","","","","","","","","Summary Trial","180","2.1.0","97839","5fec594488f057dbd3bdec07","Prolific","0","","453","","25","1","","e","313","383","","","","false","4.250000000000002","1","","Practice","70","",""
"","","","","","","","","","","","html-keyboard-response","182","2.1.0","98845","5fec594488f057dbd3bdec07","Prolific","0","","null","","26","1","<p style=""font-size: 70pt;"">+</p>","null","","","","","","","","","","","","",""
"","","","","","","","","","","","Stimulus Presentation","183","2.1.0","99155","5fec594488f057dbd3bdec07","Prolific","0","","null","","26","1","","null","383","313","313","70","w","true","4.250000000000002","","","","","",""
"","","","","","","","","","","","Stimulus Response","184","2.1.0","99675","5fec594488f057dbd3bdec07","Prolific","0","","519","","26","1","","w","","","","","","","","1","","","","",""
"","","","","","","","","","","","Feedback","185","2.1.0","100181","5fec594488f057dbd3bdec07","Prolific","0","","null","","26","1","","null","","","","","","","","","","","","",""
"","","","","","","","","","","","Summary Trial","187","2.1.0","100181","5fec594488f057dbd3bdec07","Prolific","0","","519","","26","1","","w","383","313","","","","true","4.250000000000002","1","","Practice","70","",""
"","","","","","","","","","","","instructions","188","2.1.0","127101","5fec594488f057dbd3bdec07","Prolific","0","","26919","[{""page_index"":0,""viewing_time"":26919}]","","","","","","","","","","","","","","","","",""
"","","","","","","","","","","","Confidence Rating","189","2.1.0","136343","5fec594488f057dbd3bdec07","Prolific","0","","9239","","","","A rating scale as shown below is used throughout the task. 
        You will select any point with your mouse.<br>Choose any point on the 
          scale and click &apos;Submit&apos; to continue.<br><br>
            <div id=""conf1"" class=""conf"" style=""height:25px; width:154px; margin-top:2px; margin-left:15px;""></div>
            <div id=""conf2"" class=""conf"" style=""height:25px; width:154px; margin-top:2px; margin-left:169px;""></div>
            <div id=""conf3"" class=""conf"" style=""height:25px; width:154px; margin-top:2px; margin-left:323px;""></div>
            <div id=""conf4"" class=""conf"" style=""height:25px; width:154px; margin-top:2px; margin-left:477px;""></div>
     <div id=""conf5"" class=""conf"" style=""height:25px; width:154px; margin-top:2px; margin-left:631px;""></div>","4","","","","","","","","","","","","50",""
"","","","","","","","","","","","Confidence Rating","190","2.1.0","139830","5fec594488f057dbd3bdec07","Prolific","0","","3486","","","","During the task, if you are <strong>very sure</strong> that you made the correct judgement, you should respond <strong>&apos;Certain&apos;</strong><br><br>
            <div id=""conf1"" class=""conf"" style=""height:25px; width:154px; margin-top:2px; margin-left:15px;""></div>
            <div id=""conf2"" class=""conf"" style=""height:25px; width:154px; margin-top:2px; margin-left:169px;""></div>
            <div id=""conf3"" class=""conf"" style=""height:25px; width:154px; margin-top:2px; margin-left:323px;""></div>
            <div id=""conf4"" class=""conf"" style=""height:25px; width:154px; margin-top:2px; margin-left:477px;""></div>
   <div id=""conf5"" class=""conf"" style=""height:25px; width:154px; margin-top:2px; margin-left:631px;""></div>","6","","","","","","","","","","","","50",""
"","","","","","","","","","","","Confidence Rating","191","2.1.0","141967","5fec594488f057dbd3bdec07","Prolific","0","","2135","","","","If you are <strong>very unsure</strong> you made the correct judgement, you should respond <strong>&apos;Guessing&apos;</strong><br><br>
            <div id=""conf1"" class=""conf"" style=""height:25px; width:154px; margin-top:2px; margin-left:15px;""></div>
            <div id=""conf2"" class=""conf"" style=""height:25px; width:154px; margin-top:2px; margin-left:169px;""></div>
            <div id=""conf3"" class=""conf"" style=""height:25px; width:154px; margin-top:2px; margin-left:323px;""></div>
            <div id=""conf4"" class=""conf"" style=""height:25px; width:154px; margin-top:2px; margin-left:477px;""></div>
 <div id=""conf5"" class=""conf"" style=""height:25px; width:154px; margin-top:2px; margin-left:631px;""></div>","1","","","","","","","","","","","","1",""
"","","","","","","","","","","","Confidence Rating","192","2.1.0","144531","5fec594488f057dbd3bdec07","Prolific","0","","2563","","","","If you are <strong>somewhat sure</strong> about being correct, you should select a rating between the two descriptions.<br><br>
            <div id=""conf1"" class=""conf"" style=""height:25px; width:154px; margin-top:2px; margin-left:15px;""></div>
            <div id=""conf2"" class=""conf"" style=""height:25px; width:154px; margin-top:2px; margin-left:169px;""></div>
            <div id=""conf3"" class=""conf"" style=""height:25px; width:154px; margin-top:2px; margin-left:323px;""></div>
            <div id=""conf4"" class=""conf"" style=""height:25px; width:154px; margin-top:2px; margin-left:477px;""></div>
 <div id=""conf5"" class=""conf"" style=""height:25px; width:154px; margin-top:2px; margin-left:631px;""></div>","4","","","","","","","","","","","","4",""
"","","","","","","","","","","","Confidence Rating","193","2.1.0","154159","5fec594488f057dbd3bdec07","Prolific","0","","9627","","","","If you understand how to use and take advantage of the whole rating scale, choose any point on the rating scale and click &apos;Submit&apos; to continue.<br><br>
            <div id=""conf1"" class=""conf"" style=""height:25px; width:154px; margin-top:2px; margin-left:15px;""></div>
            <div id=""conf2"" class=""conf"" style=""height:25px; width:154px; margin-top:2px; margin-left:169px;""></div>
            <div id=""conf3"" class=""conf"" style=""height:25px; width:154px; margin-top:2px; margin-left:323px;""></div>
            <div id=""conf4"" class=""conf"" style=""height:25px; width:154px; margin-top:2px; margin-left:477px;""></div>
 <div id=""conf5"" class=""conf"" style=""height:25px; width:154px; margin-top:2px; margin-left:631px;""></div>","5","","","","","","","","","","","","50",""
"","","","","","","","","","","","instructions","194","2.1.0","168722","5fec594488f057dbd3bdec07","Prolific","0","","14563","[{""page_index"":0,""viewing_time"":14563}]","","","","","","","","","","","","","","","","",""
"","","","","","","","","","","","instructions","195","2.1.0","173082","5fec594488f057dbd3bdec07","Prolific","0","","4360","[{""page_index"":0,""viewing_time"":4360}]","","","","","","","","","","","","","","","","",""
"","","","","","","","","","","","html-keyboard-response","197","2.1.0","174087","5fec594488f057dbd3bdec07","Prolific","0","","null","","27","2","<p style=""font-size: 70pt;"">+</p>","null","","","","","","","","","","","","",""
"","","","","","","","","","","","Stimulus Presentation","198","2.1.0","174400","5fec594488f057dbd3bdec07","Prolific","0","","null","","27","2","","null","376","313","313","63","w","true","4.150000000000002","","","","","",""
"","","","","","","","","","","","Stimulus Response","199","2.1.0","174882","5fec594488f057dbd3bdec07","Prolific","0","","480","","27","2","","w","","","","","","","","1","","","","",""
"","","","","","","","","","","","Feedback","200","2.1.0","175393","5fec594488f057dbd3bdec07","Prolific","0","","null","","27","2","","null","","","","","","","","","","","","",""
"","","","","","","","","","","","Confidence Rating","201","2.1.0","178655","5fec594488f057dbd3bdec07","Prolific","0","","3260","","27","2","<h3>Rate your confidence:</h3>
            <div id=""conf1"" class=""conf"" style=""height:25px; width:154px; margin-top:2px; margin-left:15px;""></div>
            <div id=""conf2"" class=""conf"" style=""height:25px; width:154px; margin-top:2px; margin-left:169px;""></div>
            <div id=""conf3"" class=""conf"" style=""height:25px; width:154px; margin-top:2px; margin-left:323px;""></div>
            <div id=""conf4"" class=""conf"" style=""height:25px; width:154px; margin-top:2px; margin-left:477px;""></div>
          <div id=""conf5"" class=""conf"" style=""height:25px; width:154px; margin-top:2px; margin-left:631px;""></div>","3","","","","","","","","","","","","50",""
"","","","","","","","","","","","Summary Trial","202","2.1.0","178655","5fec594488f057dbd3bdec07","Prolific","0","","480","","27","2","","w","376","313","","","","true","4.150000000000002","1","","Test","63","","3"
"","","","","","","","","","","","html-keyboard-response","204","2.1.0","179667","5fec594488f057dbd3bdec07","Prolific","0","","null","","28","2","<p style=""font-size: 70pt;"">+</p>","null","","","","","","","","","","","","",""
"","","","","","","","","","","","Stimulus Presentation","205","2.1.0","179994","5fec594488f057dbd3bdec07","Prolific","0","","null","","28","2","","null","313","376","313","63","e","false","4.150000000000002","","","","","",""
"","","","","","","","","","","","Stimulus Response","206","2.1.0","180507","5fec594488f057dbd3bdec07","Prolific","0","","513","","28","2","","e","","","","","","","","1","","","","",""
"","","","","","","","","","","","Feedback","207","2.1.0","181014","5fec594488f057dbd3bdec07","Prolific","0","","null","","28","2","","null","","","","","","","","","","","","",""
"","","","","","","","","","","","Confidence Rating","208","2.1.0","182970","5fec594488f057dbd3bdec07","Prolific","0","","1955","","28","2","<h3>Rate your confidence:</h3>
            <div id=""conf1"" class=""conf"" style=""height:25px; width:154px; margin-top:2px; margin-left:15px;""></div>
            <div id=""conf2"" class=""conf"" style=""height:25px; width:154px; margin-top:2px; margin-left:169px;""></div>
            <div id=""conf3"" class=""conf"" style=""height:25px; width:154px; margin-top:2px; margin-left:323px;""></div>
            <div id=""conf4"" class=""conf"" style=""height:25px; width:154px; margin-top:2px; margin-left:477px;""></div>
          <div id=""conf5"" class=""conf"" style=""height:25px; width:154px; margin-top:2px; margin-left:631px;""></div>","5","","","","","","","","","","","","50",""
"","","","","","","","","","","","Summary Trial","209","2.1.0","182971","5fec594488f057dbd3bdec07","Prolific","0","","513","","28","2","","e","313","376","","","","false","4.150000000000002","1","","Test","63","","5"
"","","","","","","","","","","","html-keyboard-response","211","2.1.0","183978","5fec594488f057dbd3bdec07","Prolific","0","","null","","29","2","<p style=""font-size: 70pt;"">+</p>","null","","","","","","","","","","","","",""
"","","","","","","","","","","","Stimulus Presentation","212","2.1.0","184279","5fec594488f057dbd3bdec07","Prolific","0","","null","","29","2","","null","370","313","313","57","w","true","4.0500000000000025","","","","","",""
"","","","","","","","","","","","Stimulus Response","213","2.1.0","184659","5fec594488f057dbd3bdec07","Prolific","0","","378","","29","2","","w","","","","","","","","1","","","","",""
"","","","","","","","","","","","Feedback","214","2.1.0","185167","5fec594488f057dbd3bdec07","Prolific","0","","null","","29","2","","null","","","","","","","","","","","","",""
"","","","","","","","","","","","Confidence Rating","215","2.1.0","187095","5fec594488f057dbd3bdec07","Prolific","0","","1926","","29","2","<h3>Rate your confidence:</h3>
            <div id=""conf1"" class=""conf"" style=""height:25px; width:154px; margin-top:2px; margin-left:15px;""></div>
            <div id=""conf2"" class=""conf"" style=""height:25px; width:154px; margin-top:2px; margin-left:169px;""></div>
            <div id=""conf3"" class=""conf"" style=""height:25px; width:154px; margin-top:2px; margin-left:323px;""></div>
            <div id=""conf4"" class=""conf"" style=""height:25px; width:154px; margin-top:2px; margin-left:477px;""></div>
          <div id=""conf5"" class=""conf"" style=""height:25px; width:154px; margin-top:2px; margin-left:631px;""></div>","3","","","","","","","","","","","","50",""
"","","","","","","","","","","","Summary Trial","216","2.1.0","187095","5fec594488f057dbd3bdec07","Prolific","0","","378","","29","2","","w","370","313","","","","true","4.0500000000000025","1","","Test","57","","3"
"","","","","","","","","","","","html-keyboard-response","218","2.1.0","188107","5fec594488f057dbd3bdec07","Prolific","0","","null","","30","2","<p style=""font-size: 70pt;"">+</p>","null","","","","","","","","","","","","",""
"","","","","","","","","","","","Stimulus Presentation","219","2.1.0","188420","5fec594488f057dbd3bdec07","Prolific","0","","null","","30","2","","null","313","370","313","57","e","false","4.0500000000000025","","","","","",""
"","","","","","","","","","","","Stimulus Response","220","2.1.0","189218","5fec594488f057dbd3bdec07","Prolific","0","","797","","30","2","","e","","","","","","","","1","","","","",""
"","","","","","","","","","","","Feedback","221","2.1.0","189722","5fec594488f057dbd3bdec07","Prolific","0","","null","","30","2","","null","","","","","","","","","","","","",""
"","","","","","","","","","","","Confidence Rating","222","2.1.0","191411","5fec594488f057dbd3bdec07","Prolific","0","","1688","","30","2","<h3>Rate your confidence:</h3>
            <div id=""conf1"" class=""conf"" style=""height:25px; width:154px; margin-top:2px; margin-left:15px;""></div>
            <div id=""conf2"" class=""conf"" style=""height:25px; width:154px; margin-top:2px; margin-left:169px;""></div>
            <div id=""conf3"" class=""conf"" style=""height:25px; width:154px; margin-top:2px; margin-left:323px;""></div>
            <div id=""conf4"" class=""conf"" style=""height:25px; width:154px; margin-top:2px; margin-left:477px;""></div>
          <div id=""conf5"" class=""conf"" style=""height:25px; width:154px; margin-top:2px; margin-left:631px;""></div>","3","","","","","","","","","","","","50",""
"","","","","","","","","","","","Summary Trial","223","2.1.0","191411","5fec594488f057dbd3bdec07","Prolific","0","","797","","30","2","","e","313","370","","","","false","4.0500000000000025","1","","Test","57","","3"
"","","","","","","","","","","","html-keyboard-response","225","2.1.0","192427","5fec594488f057dbd3bdec07","Prolific","0","","null","","31","2","<p style=""font-size: 70pt;"">+</p>","null","","","","","","","","","","","","",""
"","","","","","","","","","","","Stimulus Presentation","226","2.1.0","192738","5fec594488f057dbd3bdec07","Prolific","0","","null","","31","2","","null","365","313","313","52","w","true","3.9500000000000024","","","","","",""
"","","","","","","","","","","","Stimulus Response","227","2.1.0","193275","5fec594488f057dbd3bdec07","Prolific","0","","535","","31","2","","w","","","","","","","","1","","","","",""
"","","","","","","","","","","","Feedback","228","2.1.0","193790","5fec594488f057dbd3bdec07","Prolific","0","","null","","31","2","","null","","","","","","","","","","","","",""
"","","","","","","","","","","","Confidence Rating","229","2.1.0","196146","5fec594488f057dbd3bdec07","Prolific","0","","2355","","31","2","<h3>Rate your confidence:</h3>
            <div id=""conf1"" class=""conf"" style=""height:25px; width:154px; margin-top:2px; margin-left:15px;""></div>
            <div id=""conf2"" class=""conf"" style=""height:25px; width:154px; margin-top:2px; margin-left:169px;""></div>
            <div id=""conf3"" class=""conf"" style=""height:25px; width:154px; margin-top:2px; margin-left:323px;""></div>
            <div id=""conf4"" class=""conf"" style=""height:25px; width:154px; margin-top:2px; margin-left:477px;""></div>
          <div id=""conf5"" class=""conf"" style=""height:25px; width:154px; margin-top:2px; margin-left:631px;""></div>","4","","","","","","","","","","","","50",""
"","","","","","","","","","","","Summary Trial","230","2.1.0","196147","5fec594488f057dbd3bdec07","Prolific","0","","535","","31","2","","w","365","313","","","","true","3.9500000000000024","1","","Test","52","","4"
"","","","","","","","","","","","html-keyboard-response","232","2.1.0","197150","5fec594488f057dbd3bdec07","Prolific","0","","null","","32","2","<p style=""font-size: 70pt;"">+</p>","null","","","","","","","","","","","","",""
"","","","","","","","","","","","Stimulus Presentation","233","2.1.0","197463","5fec594488f057dbd3bdec07","Prolific","0","","null","","32","2","","null","313","365","313","52","e","false","3.9500000000000024","","","","","",""
"","","","","","","","","","","","Stimulus Response","234","2.1.0","197842","5fec594488f057dbd3bdec07","Prolific","0","","379","","32","2","","e","","","","","","","","1","","","","",""
"","","","","","","","","","","","Feedback","235","2.1.0","198346","5fec594488f057dbd3bdec07","Prolific","0","","null","","32","2","","null","","","","","","","","","","","","",""
"","","","","","","","","","","","Confidence Rating","236","2.1.0","200054","5fec594488f057dbd3bdec07","Prolific","0","","1707","","32","2","<h3>Rate your confidence:</h3>
            <div id=""conf1"" class=""conf"" style=""height:25px; width:154px; margin-top:2px; margin-left:15px;""></div>
            <div id=""conf2"" class=""conf"" style=""height:25px; width:154px; margin-top:2px; margin-left:169px;""></div>
            <div id=""conf3"" class=""conf"" style=""height:25px; width:154px; margin-top:2px; margin-left:323px;""></div>
            <div id=""conf4"" class=""conf"" style=""height:25px; width:154px; margin-top:2px; margin-left:477px;""></div>
          <div id=""conf5"" class=""conf"" style=""height:25px; width:154px; margin-top:2px; margin-left:631px;""></div>","5","","","","","","","","","","","","50",""
"","","","","","","","","","","","Summary Trial","237","2.1.0","200055","5fec594488f057dbd3bdec07","Prolific","0","","379","","32","2","","e","313","365","","","","false","3.9500000000000024","1","","Test","52","","5"
"","","","","","","","","","","","html-keyboard-response","239","2.1.0","201070","5fec594488f057dbd3bdec07","Prolific","0","","null","","33","2","<p style=""font-size: 70pt;"">+</p>","null","","","","","","","","","","","","",""
"","","","","","","","","","","","Stimulus Presentation","240","2.1.0","201381","5fec594488f057dbd3bdec07","Prolific","0","","null","","33","2","","null","360","313","313","47","w","true","3.8500000000000023","","","","","",""
"","","","","","","","","","","","Stimulus Response","241","2.1.0","202259","5fec594488f057dbd3bdec07","Prolific","0","","876","","33","2","","w","","","","","","","","1","","","","",""
"","","","","","","","","","","","Feedback","242","2.1.0","202762","5fec594488f057dbd3bdec07","Prolific","0","","null","","33","2","","null","","","","","","","","","","","","",""
"","","","","","","","","","","","Confidence Rating","243","2.1.0","204598","5fec594488f057dbd3bdec07","Prolific","0","","1836","","33","2","<h3>Rate your confidence:</h3>
            <div id=""conf1"" class=""conf"" style=""height:25px; width:154px; margin-top:2px; margin-left:15px;""></div>
            <div id=""conf2"" class=""conf"" style=""height:25px; width:154px; margin-top:2px; margin-left:169px;""></div>
            <div id=""conf3"" class=""conf"" style=""height:25px; width:154px; margin-top:2px; margin-left:323px;""></div>
            <div id=""conf4"" class=""conf"" style=""height:25px; width:154px; margin-top:2px; margin-left:477px;""></div>
          <div id=""conf5"" class=""conf"" style=""height:25px; width:154px; margin-top:2px; margin-left:631px;""></div>","2","","","","","","","","","","","","50",""
"","","","","","","","","","","","Summary Trial","244","2.1.0","204599","5fec594488f057dbd3bdec07","Prolific","0","","876","","33","2","","w","360","313","","","","true","3.8500000000000023","1","","Test","47","","2"
"","","","","","","","","","","","html-keyboard-response","246","2.1.0","205609","5fec594488f057dbd3bdec07","Prolific","0","","null","","34","2","<p style=""font-size: 70pt;"">+</p>","null","","","","","","","","","","","","",""
"","","","","","","","","","","","Stimulus Presentation","247","2.1.0","205914","5fec594488f057dbd3bdec07","Prolific","0","","null","","34","2","","null","313","360","313","47","e","false","3.8500000000000023","","","","","",""
"","","","","","","","","","","","Stimulus Response","248","2.1.0","206611","5fec594488f057dbd3bdec07","Prolific","0","","696","","34","2","","e","","","","","","","","1","","","","",""
"","","","","","","","","","","","Feedback","249","2.1.0","207113","5fec594488f057dbd3bdec07","Prolific","0","","null","","34","2","","null","","","","","","","","","","","","",""
"","","","","","","","","","","","Confidence Rating","250","2.1.0","208531","5fec594488f057dbd3bdec07","Prolific","0","","1417","","34","2","<h3>Rate your confidence:</h3>
            <div id=""conf1"" class=""conf"" style=""height:25px; width:154px; margin-top:2px; margin-left:15px;""></div>
            <div id=""conf2"" class=""conf"" style=""height:25px; width:154px; margin-top:2px; margin-left:169px;""></div>
            <div id=""conf3"" class=""conf"" style=""height:25px; width:154px; margin-top:2px; margin-left:323px;""></div>
            <div id=""conf4"" class=""conf"" style=""height:25px; width:154px; margin-top:2px; margin-left:477px;""></div>
          <div id=""conf5"" class=""conf"" style=""height:25px; width:154px; margin-top:2px; margin-left:631px;""></div>","3","","","","","","","","","","","","50",""
"","","","","","","","","","","","Summary Trial","251","2.1.0","208531","5fec594488f057dbd3bdec07","Prolific","0","","696","","34","2","","e","313","360","","","","false","3.8500000000000023","1","","Test","47","","3"
"","","","","","","","","","","","html-keyboard-response","253","2.1.0","209543","5fec594488f057dbd3bdec07","Prolific","0","","null","","35","2","<p style=""font-size: 70pt;"">+</p>","null","","","","","","","","","","","","",""
"","","","","","","","","","","","Stimulus Presentation","254","2.1.0","209855","5fec594488f057dbd3bdec07","Prolific","0","","null","","35","2","","null","313","356","313","43","e","false","3.750000000000002","","","","","",""
"","","","","","","","","","","","Stimulus Response","255","2.1.0","210547","5fec594488f057dbd3bdec07","Prolific","0","","690","","35","2","","w","","","","","","","","0","","","","",""
"","","","","","","","","","","","Feedback","256","2.1.0","211049","5fec594488f057dbd3bdec07","Prolific","0","","null","","35","2","","null","","","","","","","","","","","","",""
"","","","","","","","","","","","Confidence Rating","257","2.1.0","213846","5fec594488f057dbd3bdec07","Prolific","0","","2796","","35","2","<h3>Rate your confidence:</h3>
            <div id=""conf1"" class=""conf"" style=""height:25px; width:154px; margin-top:2px; margin-left:15px;""></div>
            <div id=""conf2"" class=""conf"" style=""height:25px; width:154px; margin-top:2px; margin-left:169px;""></div>
            <div id=""conf3"" class=""conf"" style=""height:25px; width:154px; margin-top:2px; margin-left:323px;""></div>
            <div id=""conf4"" class=""conf"" style=""height:25px; width:154px; margin-top:2px; margin-left:477px;""></div>
          <div id=""conf5"" class=""conf"" style=""height:25px; width:154px; margin-top:2px; margin-left:631px;""></div>","4","","","","","","","","","","","","50",""
"","","","","","","","","","","","Summary Trial","258","2.1.0","213847","5fec594488f057dbd3bdec07","Prolific","0","","690","","35","2","","w","313","356","","","","false","3.750000000000002","0","","Test","43","","4"
"","","","","","","","","","","","html-keyboard-response","260","2.1.0","214856","5fec594488f057dbd3bdec07","Prolific","0","","null","","36","2","<p style=""font-size: 70pt;"">+</p>","null","","","","","","","","","","","","",""
"","","","","","","","","","","","Stimulus Presentation","261","2.1.0","215167","5fec594488f057dbd3bdec07","Prolific","0","","null","","36","2","","null","360","313","313","47","w","true","3.8500000000000023","","","","","",""
"","","","","","","","","","","","Stimulus Response","262","2.1.0","216131","5fec594488f057dbd3bdec07","Prolific","0","","962","","36","2","","w","","","","","","","","1","","","","",""
"","","","","","","","","","","","Feedback","263","2.1.0","216635","5fec594488f057dbd3bdec07","Prolific","0","","null","","36","2","","null","","","","","","","","","","","","",""
"","","","","","","","","","","","Confidence Rating","264","2.1.0","218927","5fec594488f057dbd3bdec07","Prolific","0","","2290","","36","2","<h3>Rate your confidence:</h3>
            <div id=""conf1"" class=""conf"" style=""height:25px; width:154px; margin-top:2px; margin-left:15px;""></div>
            <div id=""conf2"" class=""conf"" style=""height:25px; width:154px; margin-top:2px; margin-left:169px;""></div>
            <div id=""conf3"" class=""conf"" style=""height:25px; width:154px; margin-top:2px; margin-left:323px;""></div>
            <div id=""conf4"" class=""conf"" style=""height:25px; width:154px; margin-top:2px; margin-left:477px;""></div>
          <div id=""conf5"" class=""conf"" style=""height:25px; width:154px; margin-top:2px; margin-left:631px;""></div>","5","","","","","","","","","","","","50",""
"","","","","","","","","","","","Summary Trial","265","2.1.0","218927","5fec594488f057dbd3bdec07","Prolific","0","","962","","36","2","","w","360","313","","","","true","3.8500000000000023","1","","Test","47","","5"
"","","","","","","","","","","","html-keyboard-response","267","2.1.0","219939","5fec594488f057dbd3bdec07","Prolific","0","","null","","37","2","<p style=""font-size: 70pt;"">+</p>","null","","","","","","","","","","","","",""
"","","","","","","","","","","","Stimulus Presentation","268","2.1.0","220247","5fec594488f057dbd3bdec07","Prolific","0","","null","","37","2","","null","360","313","313","47","w","true","3.8500000000000023","","","","","",""
"","","","","","","","","","","","Stimulus Response","269","2.1.0","220955","5fec594488f057dbd3bdec07","Prolific","0","","706","","37","2","","e","","","","","","","","0","","","","",""
"","","","","","","","","","","","Feedback","270","2.1.0","221467","5fec594488f057dbd3bdec07","Prolific","0","","null","","37","2","","null","","","","","","","","","","","","",""
"","","","","","","","","","","","Confidence Rating","271","2.1.0","223062","5fec594488f057dbd3bdec07","Prolific","0","","1594","","37","2","<h3>Rate your confidence:</h3>
            <div id=""conf1"" class=""conf"" style=""height:25px; width:154px; margin-top:2px; margin-left:15px;""></div>
            <div id=""conf2"" class=""conf"" style=""height:25px; width:154px; margin-top:2px; margin-left:169px;""></div>
            <div id=""conf3"" class=""conf"" style=""height:25px; width:154px; margin-top:2px; margin-left:323px;""></div>
            <div id=""conf4"" class=""conf"" style=""height:25px; width:154px; margin-top:2px; margin-left:477px;""></div>
          <div id=""conf5"" class=""conf"" style=""height:25px; width:154px; margin-top:2px; margin-left:631px;""></div>","4","","","","","","","","","","","","50",""
"","","","","","","","","","","","Summary Trial","272","2.1.0","223063","5fec594488f057dbd3bdec07","Prolific","0","","706","","37","2","","e","360","313","","","","true","3.8500000000000023","0","","Test","47","","4"
"","","","","","","","","","","","html-keyboard-response","274","2.1.0","224075","5fec594488f057dbd3bdec07","Prolific","0","","null","","38","2","<p style=""font-size: 70pt;"">+</p>","null","","","","","","","","","","","","",""
"","","","","","","","","","","","Stimulus Presentation","275","2.1.0","224383","5fec594488f057dbd3bdec07","Prolific","0","","null","","38","2","","null","313","365","313","52","e","false","3.9500000000000024","","","","","",""
"","","","","","","","","","","","Stimulus Response","276","2.1.0","224954","5fec594488f057dbd3bdec07","Prolific","0","","570","","38","2","","e","","","","","","","","1","","","","",""
"","","","","","","","","","","","Feedback","277","2.1.0","225466","5fec594488f057dbd3bdec07","Prolific","0","","null","","38","2","","null","","","","","","","","","","","","",""
"","","","","","","","","","","","Confidence Rating","278","2.1.0","226619","5fec594488f057dbd3bdec07","Prolific","0","","1152","","38","2","<h3>Rate your confidence:</h3>
            <div id=""conf1"" class=""conf"" style=""height:25px; width:154px; margin-top:2px; margin-left:15px;""></div>
            <div id=""conf2"" class=""conf"" style=""height:25px; width:154px; margin-top:2px; margin-left:169px;""></div>
            <div id=""conf3"" class=""conf"" style=""height:25px; width:154px; margin-top:2px; margin-left:323px;""></div>
            <div id=""conf4"" class=""conf"" style=""height:25px; width:154px; margin-top:2px; margin-left:477px;""></div>
          <div id=""conf5"" class=""conf"" style=""height:25px; width:154px; margin-top:2px; margin-left:631px;""></div>","5","","","","","","","","","","","","50",""
"","","","","","","","","","","","Summary Trial","279","2.1.0","226619","5fec594488f057dbd3bdec07","Prolific","0","","570","","38","2","","e","313","365","","","","false","3.9500000000000024","1","","Test","52","","5"
"","","","","","","","","","","","html-keyboard-response","281","2.1.0","227627","5fec594488f057dbd3bdec07","Prolific","0","","null","","39","2","<p style=""font-size: 70pt;"">+</p>","null","","","","","","","","","","","","",""
"","","","","","","","","","","","Stimulus Presentation","282","2.1.0","227937","5fec594488f057dbd3bdec07","Prolific","0","","null","","39","2","","null","365","313","313","52","w","true","3.9500000000000024","","","","","",""
"","","","","","","","","","","","Stimulus Response","283","2.1.0","228547","5fec594488f057dbd3bdec07","Prolific","0","","609","","39","2","","w","","","","","","","","1","","","","",""
"","","","","","","","","","","","Feedback","284","2.1.0","229049","5fec594488f057dbd3bdec07","Prolific","0","","null","","39","2","","null","","","","","","","","","","","","",""
"","","","","","","","","","","","Confidence Rating","285","2.1.0","232242","5fec594488f057dbd3bdec07","Prolific","0","","3191","","39","2","<h3>Rate your confidence:</h3>
            <div id=""conf1"" class=""conf"" style=""height:25px; width:154px; margin-top:2px; margin-left:15px;""></div>
            <div id=""conf2"" class=""conf"" style=""height:25px; width:154px; margin-top:2px; margin-left:169px;""></div>
            <div id=""conf3"" class=""conf"" style=""height:25px; width:154px; margin-top:2px; margin-left:323px;""></div>
            <div id=""conf4"" class=""conf"" style=""height:25px; width:154px; margin-top:2px; margin-left:477px;""></div>
          <div id=""conf5"" class=""conf"" style=""height:25px; width:154px; margin-top:2px; margin-left:631px;""></div>","4","","","","","","","","","","","","50",""
"","","","","","","","","","","","Summary Trial","286","2.1.0","232243","5fec594488f057dbd3bdec07","Prolific","0","","609","","39","2","","w","365","313","","","","true","3.9500000000000024","1","","Test","52","","4"
"","","","","","","","","","","","html-keyboard-response","288","2.1.0","233255","5fec594488f057dbd3bdec07","Prolific","0","","null","","40","2","<p style=""font-size: 70pt;"">+</p>","null","","","","","","","","","","","","",""
"","","","","","","","","","","","Stimulus Presentation","289","2.1.0","233567","5fec594488f057dbd3bdec07","Prolific","0","","null","","40","2","","null","313","360","313","47","e","false","3.8500000000000023","","","","","",""
"","","","","","","","","","","","Stimulus Response","290","2.1.0","234259","5fec594488f057dbd3bdec07","Prolific","0","","691","","40","2","","e","","","","","","","","1","","","","",""
"","","","","","","","","","","","Feedback","291","2.1.0","234762","5fec594488f057dbd3bdec07","Prolific","0","","null","","40","2","","null","","","","","","","","","","","","",""
"","","","","","","","","","","","Confidence Rating","292","2.1.0","236326","5fec594488f057dbd3bdec07","Prolific","0","","1564","","40","2","<h3>Rate your confidence:</h3>
            <div id=""conf1"" class=""conf"" style=""height:25px; width:154px; margin-top:2px; margin-left:15px;""></div>
            <div id=""conf2"" class=""conf"" style=""height:25px; width:154px; margin-top:2px; margin-left:169px;""></div>
            <div id=""conf3"" class=""conf"" style=""height:25px; width:154px; margin-top:2px; margin-left:323px;""></div>
            <div id=""conf4"" class=""conf"" style=""height:25px; width:154px; margin-top:2px; margin-left:477px;""></div>
          <div id=""conf5"" class=""conf"" style=""height:25px; width:154px; margin-top:2px; margin-left:631px;""></div>","5","","","","","","","","","","","","50",""
"","","","","","","","","","","","Summary Trial","293","2.1.0","236327","5fec594488f057dbd3bdec07","Prolific","0","","691","","40","2","","e","313","360","","","","false","3.8500000000000023","1","","Test","47","","5"
"","","","","","","","","","","","html-keyboard-response","295","2.1.0","237330","5fec594488f057dbd3bdec07","Prolific","0","","null","","41","2","<p style=""font-size: 70pt;"">+</p>","null","","","","","","","","","","","","",""
"","","","","","","","","","","","Stimulus Presentation","296","2.1.0","237642","5fec594488f057dbd3bdec07","Prolific","0","","null","","41","2","","null","360","313","313","47","w","true","3.8500000000000023","","","","","",""
"","","","","","","","","","","","Stimulus Response","297","2.1.0","238361","5fec594488f057dbd3bdec07","Prolific","0","","718","","41","2","","w","","","","","","","","1","","","","",""
"","","","","","","","","","","","Feedback","298","2.1.0","238863","5fec594488f057dbd3bdec07","Prolific","0","","null","","41","2","","null","","","","","","","","","","","","",""
"","","","","","","","","","","","Confidence Rating","299","2.1.0","240931","5fec594488f057dbd3bdec07","Prolific","0","","2067","","41","2","<h3>Rate your confidence:</h3>
            <div id=""conf1"" class=""conf"" style=""height:25px; width:154px; margin-top:2px; margin-left:15px;""></div>
            <div id=""conf2"" class=""conf"" style=""height:25px; width:154px; margin-top:2px; margin-left:169px;""></div>
            <div id=""conf3"" class=""conf"" style=""height:25px; width:154px; margin-top:2px; margin-left:323px;""></div>
            <div id=""conf4"" class=""conf"" style=""height:25px; width:154px; margin-top:2px; margin-left:477px;""></div>
          <div id=""conf5"" class=""conf"" style=""height:25px; width:154px; margin-top:2px; margin-left:631px;""></div>","2","","","","","","","","","","","","50",""
"","","","","","","","","","","","Summary Trial","300","2.1.0","240931","5fec594488f057dbd3bdec07","Prolific","0","","718","","41","2","","w","360","313","","","","true","3.8500000000000023","1","","Test","47","","2"
"","","","","","","","","","","","html-keyboard-response","302","2.1.0","241940","5fec594488f057dbd3bdec07","Prolific","0","","null","","42","2","<p style=""font-size: 70pt;"">+</p>","null","","","","","","","","","","","","",""
"","","","","","","","","","","","Stimulus Presentation","303","2.1.0","242252","5fec594488f057dbd3bdec07","Prolific","0","","null","","42","2","","null","313","356","313","43","e","false","3.750000000000002","","","","","",""
"","","","","","","","","","","","Stimulus Response","304","2.1.0","242898","5fec594488f057dbd3bdec07","Prolific","0","","645","","42","2","","e","","","","","","","","1","","","","",""
"","","","","","","","","","","","Feedback","305","2.1.0","243401","5fec594488f057dbd3bdec07","Prolific","0","","null","","42","2","","null","","","","","","","","","","","","",""
"","","","","","","","","","","","Confidence Rating","306","2.1.0","244690","5fec594488f057dbd3bdec07","Prolific","0","","1287","","42","2","<h3>Rate your confidence:</h3>
            <div id=""conf1"" class=""conf"" style=""height:25px; width:154px; margin-top:2px; margin-left:15px;""></div>
            <div id=""conf2"" class=""conf"" style=""height:25px; width:154px; margin-top:2px; margin-left:169px;""></div>
            <div id=""conf3"" class=""conf"" style=""height:25px; width:154px; margin-top:2px; margin-left:323px;""></div>
            <div id=""conf4"" class=""conf"" style=""height:25px; width:154px; margin-top:2px; margin-left:477px;""></div>
          <div id=""conf5"" class=""conf"" style=""height:25px; width:154px; margin-top:2px; margin-left:631px;""></div>","5","","","","","","","","","","","","50",""
"","","","","","","","","","","","Summary Trial","307","2.1.0","244691","5fec594488f057dbd3bdec07","Prolific","0","","645","","42","2","","e","313","356","","","","false","3.750000000000002","1","","Test","43","","5"
"","","","","","","","","","","","html-keyboard-response","309","2.1.0","245706","5fec594488f057dbd3bdec07","Prolific","0","","null","","43","2","<p style=""font-size: 70pt;"">+</p>","null","","","","","","","","","","","","",""
"","","","","","","","","","","","Stimulus Presentation","310","2.1.0","246018","5fec594488f057dbd3bdec07","Prolific","0","","null","","43","2","","null","356","313","313","43","w","true","3.750000000000002","","","","","",""
"","","","","","","","","","","","Stimulus Response","311","2.1.0","246554","5fec594488f057dbd3bdec07","Prolific","0","","535","","43","2","","w","","","","","","","","1","","","","",""
"","","","","","","","","","","","Feedback","312","2.1.0","247055","5fec594488f057dbd3bdec07","Prolific","0","","null","","43","2","","null","","","","","","","","","","","","",""
"","","","","","","","","","","","Confidence Rating","313","2.1.0","248634","5fec594488f057dbd3bdec07","Prolific","0","","1578","","43","2","<h3>Rate your confidence:</h3>
            <div id=""conf1"" class=""conf"" style=""height:25px; width:154px; margin-top:2px; margin-left:15px;""></div>
            <div id=""conf2"" class=""conf"" style=""height:25px; width:154px; margin-top:2px; margin-left:169px;""></div>
            <div id=""conf3"" class=""conf"" style=""height:25px; width:154px; margin-top:2px; margin-left:323px;""></div>
            <div id=""conf4"" class=""conf"" style=""height:25px; width:154px; margin-top:2px; margin-left:477px;""></div>
          <div id=""conf5"" class=""conf"" style=""height:25px; width:154px; margin-top:2px; margin-left:631px;""></div>","6","","","","","","","","","","","","50",""
"","","","","","","","","","","","Summary Trial","314","2.1.0","248634","5fec594488f057dbd3bdec07","Prolific","0","","535","","43","2","","w","356","313","","","","true","3.750000000000002","1","","Test","43","","6"
"","","","","","","","","","","","html-keyboard-response","316","2.1.0","249641","5fec594488f057dbd3bdec07","Prolific","0","","null","","44","2","<p style=""font-size: 70pt;"">+</p>","null","","","","","","","","","","","","",""
"","","","","","","","","","","","Stimulus Presentation","317","2.1.0","249948","5fec594488f057dbd3bdec07","Prolific","0","","null","","44","2","","null","313","351","313","38","e","false","3.650000000000002","","","","","",""
"","","","","","","","","","","","Stimulus Response","318","2.1.0","250426","5fec594488f057dbd3bdec07","Prolific","0","","478","","44","2","","e","","","","","","","","1","","","","",""
"","","","","","","","","","","","Feedback","319","2.1.0","250930","5fec594488f057dbd3bdec07","Prolific","0","","null","","44","2","","null","","","","","","","","","","","","",""
"","","","","","","","","","","","Confidence Rating","320","2.1.0","254679","5fec594488f057dbd3bdec07","Prolific","0","","3747","","44","2","<h3>Rate your confidence:</h3>
            <div id=""conf1"" class=""conf"" style=""height:25px; width:154px; margin-top:2px; margin-left:15px;""></div>
            <div id=""conf2"" class=""conf"" style=""height:25px; width:154px; margin-top:2px; margin-left:169px;""></div>
            <div id=""conf3"" class=""conf"" style=""height:25px; width:154px; margin-top:2px; margin-left:323px;""></div>
            <div id=""conf4"" class=""conf"" style=""height:25px; width:154px; margin-top:2px; margin-left:477px;""></div>
          <div id=""conf5"" class=""conf"" style=""height:25px; width:154px; margin-top:2px; margin-left:631px;""></div>","6","","","","","","","","","","","","50",""
"","","","","","","","","","","","Summary Trial","321","2.1.0","254680","5fec594488f057dbd3bdec07","Prolific","0","","478","","44","2","","e","313","351","","","","false","3.650000000000002","1","","Test","38","","6"
"","","","","","","","","","","","html-keyboard-response","323","2.1.0","255683","5fec594488f057dbd3bdec07","Prolific","0","","null","","45","2","<p style=""font-size: 70pt;"">+</p>","null","","","","","","","","","","","","",""
"","","","","","","","","","","","Stimulus Presentation","324","2.1.0","255997","5fec594488f057dbd3bdec07","Prolific","0","","null","","45","2","","null","313","351","313","38","e","false","3.650000000000002","","","","","",""
"","","","","","","","","","","","Stimulus Response","325","2.1.0","256867","5fec594488f057dbd3bdec07","Prolific","0","","869","","45","2","","e","","","","","","","","1","","","","",""
"","","","","","","","","","","","Feedback","326","2.1.0","257370","5fec594488f057dbd3bdec07","Prolific","0","","null","","45","2","","null","","","","","","","","","","","","",""
"","","","","","","","","","","","Confidence Rating","327","2.1.0","258742","5fec594488f057dbd3bdec07","Prolific","0","","1371","","45","2","<h3>Rate your confidence:</h3>
            <div id=""conf1"" class=""conf"" style=""height:25px; width:154px; margin-top:2px; margin-left:15px;""></div>
            <div id=""conf2"" class=""conf"" style=""height:25px; width:154px; margin-top:2px; margin-left:169px;""></div>
            <div id=""conf3"" class=""conf"" style=""height:25px; width:154px; margin-top:2px; margin-left:323px;""></div>
            <div id=""conf4"" class=""conf"" style=""height:25px; width:154px; margin-top:2px; margin-left:477px;""></div>
          <div id=""conf5"" class=""conf"" style=""height:25px; width:154px; margin-top:2px; margin-left:631px;""></div>","3","","","","","","","","","","","","50",""
"","","","","","","","","","","","Summary Trial","328","2.1.0","258743","5fec594488f057dbd3bdec07","Prolific","0","","869","","45","2","","e","313","351","","","","false","3.650000000000002","1","","Test","38","","3"
"","","","","","","","","","","","html-keyboard-response","330","2.1.0","259753","5fec594488f057dbd3bdec07","Prolific","0","","null","","46","2","<p style=""font-size: 70pt;"">+</p>","null","","","","","","","","","","","","",""
"","","","","","","","","","","","Stimulus Presentation","331","2.1.0","260064","5fec594488f057dbd3bdec07","Prolific","0","","null","","46","2","","null","348","313","313","35","w","true","3.550000000000002","","","","","",""
"","","","","","","","","","","","Stimulus Response","332","2.1.0","260658","5fec594488f057dbd3bdec07","Prolific","0","","592","","46","2","","w","","","","","","","","1","","","","",""
"","","","","","","","","","","","Feedback","333","2.1.0","261159","5fec594488f057dbd3bdec07","Prolific","0","","null","","46","2","","null","","","","","","","","","","","","",""
"","","","","","","","","","","","Confidence Rating","334","2.1.0","262602","5fec594488f057dbd3bdec07","Prolific","0","","1442","","46","2","<h3>Rate your confidence:</h3>
            <div id=""conf1"" class=""conf"" style=""height:25px; width:154px; margin-top:2px; margin-left:15px;""></div>
            <div id=""conf2"" class=""conf"" style=""height:25px; width:154px; margin-top:2px; margin-left:169px;""></div>
            <div id=""conf3"" class=""conf"" style=""height:25px; width:154px; margin-top:2px; margin-left:323px;""></div>
            <div id=""conf4"" class=""conf"" style=""height:25px; width:154px; margin-top:2px; margin-left:477px;""></div>
          <div id=""conf5"" class=""conf"" style=""height:25px; width:154px; margin-top:2px; margin-left:631px;""></div>","2","","","","","","","","","","","","50",""
"","","","","","","","","","","","Summary Trial","335","2.1.0","262603","5fec594488f057dbd3bdec07","Prolific","0","","592","","46","2","","w","348","313","","","","true","3.550000000000002","1","","Test","35","","2"
"","","","","","","","","","","","html-keyboard-response","337","2.1.0","263608","5fec594488f057dbd3bdec07","Prolific","0","","null","","47","2","<p style=""font-size: 70pt;"">+</p>","null","","","","","","","","","","","","",""
"","","","","","","","","","","","Stimulus Presentation","338","2.1.0","263920","5fec594488f057dbd3bdec07","Prolific","0","","null","","47","2","","null","313","348","313","35","e","false","3.550000000000002","","","","","",""
"","","","","","","","","","","","Stimulus Response","339","2.1.0","264571","5fec594488f057dbd3bdec07","Prolific","0","","649","","47","2","","e","","","","","","","","1","","","","",""
"","","","","","","","","","","","Feedback","340","2.1.0","265073","5fec594488f057dbd3bdec07","Prolific","0","","null","","47","2","","null","","","","","","","","","","","","",""
"","","","","","","","","","","","Confidence Rating","341","2.1.0","266366","5fec594488f057dbd3bdec07","Prolific","0","","1291","","47","2","<h3>Rate your confidence:</h3>
            <div id=""conf1"" class=""conf"" style=""height:25px; width:154px; margin-top:2px; margin-left:15px;""></div>
            <div id=""conf2"" class=""conf"" style=""height:25px; width:154px; margin-top:2px; margin-left:169px;""></div>
            <div id=""conf3"" class=""conf"" style=""height:25px; width:154px; margin-top:2px; margin-left:323px;""></div>
            <div id=""conf4"" class=""conf"" style=""height:25px; width:154px; margin-top:2px; margin-left:477px;""></div>
          <div id=""conf5"" class=""conf"" style=""height:25px; width:154px; margin-top:2px; margin-left:631px;""></div>","5","","","","","","","","","","","","50",""
"","","","","","","","","","","","Summary Trial","342","2.1.0","266366","5fec594488f057dbd3bdec07","Prolific","0","","649","","47","2","","e","313","348","","","","false","3.550000000000002","1","","Test","35","","5"
"","","","","","","","","","","","html-keyboard-response","344","2.1.0","267374","5fec594488f057dbd3bdec07","Prolific","0","","null","","48","2","<p style=""font-size: 70pt;"">+</p>","null","","","","","","","","","","","","",""
"","","","","","","","","","","","Stimulus Presentation","345","2.1.0","267685","5fec594488f057dbd3bdec07","Prolific","0","","null","","48","2","","null","345","313","313","32","w","true","3.450000000000002","","","","","",""
"","","","","","","","","","","","Stimulus Response","346","2.1.0","268203","5fec594488f057dbd3bdec07","Prolific","0","","516","","48","2","","w","","","","","","","","1","","","","",""
"","","","","","","","","","","","Feedback","347","2.1.0","268704","5fec594488f057dbd3bdec07","Prolific","0","","null","","48","2","","null","","","","","","","","","","","","",""
"","","","","","","","","","","","Confidence Rating","348","2.1.0","270222","5fec594488f057dbd3bdec07","Prolific","0","","1516","","48","2","<h3>Rate your confidence:</h3>
            <div id=""conf1"" class=""conf"" style=""height:25px; width:154px; margin-top:2px; margin-left:15px;""></div>
            <div id=""conf2"" class=""conf"" style=""height:25px; width:154px; margin-top:2px; margin-left:169px;""></div>
            <div id=""conf3"" class=""conf"" style=""height:25px; width:154px; margin-top:2px; margin-left:323px;""></div>
            <div id=""conf4"" class=""conf"" style=""height:25px; width:154px; margin-top:2px; margin-left:477px;""></div>
          <div id=""conf5"" class=""conf"" style=""height:25px; width:154px; margin-top:2px; margin-left:631px;""></div>","5","","","","","","","","","","","","50",""
"","","","","","","","","","","","Summary Trial","349","2.1.0","270222","5fec594488f057dbd3bdec07","Prolific","0","","516","","48","2","","w","345","313","","","","true","3.450000000000002","1","","Test","32","","5"
"","","","","","","","","","","","html-keyboard-response","351","2.1.0","271229","5fec594488f057dbd3bdec07","Prolific","0","","null","","49","2","<p style=""font-size: 70pt;"">+</p>","null","","","","","","","","","","","","",""
"","","","","","","","","","","","Stimulus Presentation","352","2.1.0","271535","5fec594488f057dbd3bdec07","Prolific","0","","null","","49","2","","null","345","313","313","32","w","true","3.450000000000002","","","","","",""
"","","","","","","","","","","","Stimulus Response","353","2.1.0","272882","5fec594488f057dbd3bdec07","Prolific","0","","1346","","49","2","","w","","","","","","","","1","","","","",""
"","","","","","","","","","","","Feedback","354","2.1.0","273387","5fec594488f057dbd3bdec07","Prolific","0","","null","","49","2","","null","","","","","","","","","","","","",""
"","","","","","","","","","","","Confidence Rating","355","2.1.0","275394","5fec594488f057dbd3bdec07","Prolific","0","","2006","","49","2","<h3>Rate your confidence:</h3>
            <div id=""conf1"" class=""conf"" style=""height:25px; width:154px; margin-top:2px; margin-left:15px;""></div>
            <div id=""conf2"" class=""conf"" style=""height:25px; width:154px; margin-top:2px; margin-left:169px;""></div>
            <div id=""conf3"" class=""conf"" style=""height:25px; width:154px; margin-top:2px; margin-left:323px;""></div>
            <div id=""conf4"" class=""conf"" style=""height:25px; width:154px; margin-top:2px; margin-left:477px;""></div>
          <div id=""conf5"" class=""conf"" style=""height:25px; width:154px; margin-top:2px; margin-left:631px;""></div>","5","","","","","","","","","","","","50",""
"","","","","","","","","","","","Summary Trial","356","2.1.0","275395","5fec594488f057dbd3bdec07","Prolific","0","","1346","","49","2","","w","345","313","","","","true","3.450000000000002","1","","Test","32","","5"
"","","","","","","","","","","","html-keyboard-response","358","2.1.0","276405","5fec594488f057dbd3bdec07","Prolific","0","","null","","50","2","<p style=""font-size: 70pt;"">+</p>","null","","","","","","","","","","","","",""
"","","","","","","","","","","","Stimulus Presentation","359","2.1.0","276714","5fec594488f057dbd3bdec07","Prolific","0","","null","","50","2","","null","313","342","313","29","e","false","3.350000000000002","","","","","",""
"","","","","","","","","","","","Stimulus Response","360","2.1.0","277307","5fec594488f057dbd3bdec07","Prolific","0","","591","","50","2","","e","","","","","","","","1","","","","",""
"","","","","","","","","","","","Feedback","361","2.1.0","277808","5fec594488f057dbd3bdec07","Prolific","0","","null","","50","2","","null","","","","","","","","","","","","",""
"","","","","","","","","","","","Confidence Rating","362","2.1.0","281023","5fec594488f057dbd3bdec07","Prolific","0","","3214","","50","2","<h3>Rate your confidence:</h3>
            <div id=""conf1"" class=""conf"" style=""height:25px; width:154px; margin-top:2px; margin-left:15px;""></div>
            <div id=""conf2"" class=""conf"" style=""height:25px; width:154px; margin-top:2px; margin-left:169px;""></div>
            <div id=""conf3"" class=""conf"" style=""height:25px; width:154px; margin-top:2px; margin-left:323px;""></div>
            <div id=""conf4"" class=""conf"" style=""height:25px; width:154px; margin-top:2px; margin-left:477px;""></div>
          <div id=""conf5"" class=""conf"" style=""height:25px; width:154px; margin-top:2px; margin-left:631px;""></div>","6","","","","","","","","","","","","50",""
"","","","","","","","","","","","Summary Trial","363","2.1.0","281023","5fec594488f057dbd3bdec07","Prolific","0","","591","","50","2","","e","313","342","","","","false","3.350000000000002","1","","Test","29","","6"
"","","","","","","","","","","","html-keyboard-response","365","2.1.0","282033","5fec594488f057dbd3bdec07","Prolific","0","","null","","51","2","<p style=""font-size: 70pt;"">+</p>","null","","","","","","","","","","","","",""
"","","","","","","","","","","","Stimulus Presentation","366","2.1.0","282346","5fec594488f057dbd3bdec07","Prolific","0","","null","","51","2","","null","313","342","313","29","e","false","3.350000000000002","","","","","",""
"","","","","","","","","","","","Stimulus Response","367","2.1.0","283115","5fec594488f057dbd3bdec07","Prolific","0","","768","","51","2","","e","","","","","","","","1","","","","",""
"","","","","","","","","","","","Feedback","368","2.1.0","283619","5fec594488f057dbd3bdec07","Prolific","0","","null","","51","2","","null","","","","","","","","","","","","",""
"","","","","","","","","","","","Confidence Rating","369","2.1.0","285342","5fec594488f057dbd3bdec07","Prolific","0","","1723","","51","2","<h3>Rate your confidence:</h3>
            <div id=""conf1"" class=""conf"" style=""height:25px; width:154px; margin-top:2px; margin-left:15px;""></div>
            <div id=""conf2"" class=""conf"" style=""height:25px; width:154px; margin-top:2px; margin-left:169px;""></div>
            <div id=""conf3"" class=""conf"" style=""height:25px; width:154px; margin-top:2px; margin-left:323px;""></div>
            <div id=""conf4"" class=""conf"" style=""height:25px; width:154px; margin-top:2px; margin-left:477px;""></div>
          <div id=""conf5"" class=""conf"" style=""height:25px; width:154px; margin-top:2px; margin-left:631px;""></div>","3","","","","","","","","","","","","50",""
"","","","","","","","","","","","Summary Trial","370","2.1.0","285343","5fec594488f057dbd3bdec07","Prolific","0","","768","","51","2","","e","313","342","","","","false","3.350000000000002","1","","Test","29","","3"
"","","","","","","","","","","","html-keyboard-response","372","2.1.0","286348","5fec594488f057dbd3bdec07","Prolific","0","","null","","52","2","<p style=""font-size: 70pt;"">+</p>","null","","","","","","","","","","","","",""
"","","","","","","","","","","","Stimulus Presentation","373","2.1.0","286658","5fec594488f057dbd3bdec07","Prolific","0","","null","","52","2","","null","339","313","313","26","w","true","3.2500000000000018","","","","","",""
"","","","","","","","","","","","Stimulus Response","374","2.1.0","287490","5fec594488f057dbd3bdec07","Prolific","0","","831","","52","2","","e","","","","","","","","0","","","","",""
"","","","","","","","","","","","Feedback","375","2.1.0","287995","5fec594488f057dbd3bdec07","Prolific","0","","null","","52","2","","null","","","","","","","","","","","","",""
"","","","","","","","","","","","Confidence Rating","376","2.1.0","289518","5fec594488f057dbd3bdec07","Prolific","0","","1522","","52","2","<h3>Rate your confidence:</h3>
            <div id=""conf1"" class=""conf"" style=""height:25px; width:154px; margin-top:2px; margin-left:15px;""></div>
            <div id=""conf2"" class=""conf"" style=""height:25px; width:154px; margin-top:2px; margin-left:169px;""></div>
            <div id=""conf3"" class=""conf"" style=""height:25px; width:154px; margin-top:2px; margin-left:323px;""></div>
            <div id=""conf4"" class=""conf"" style=""height:25px; width:154px; margin-top:2px; margin-left:477px;""></div>
          <div id=""conf5"" class=""conf"" style=""height:25px; width:154px; margin-top:2px; margin-left:631px;""></div>","2","","","","","","","","","","","","50",""
"","","","","","","","","","","","Summary Trial","377","2.1.0","289518","5fec594488f057dbd3bdec07","Prolific","0","","831","","52","2","","e","339","313","","","","true","3.2500000000000018","0","","Test","26","","2"
"","","","","","","","","","","","html-keyboard-response","379","2.1.0","290533","5fec594488f057dbd3bdec07","Prolific","0","","null","","53","2","<p style=""font-size: 70pt;"">+</p>","null","","","","","","","","","","","","",""
"","","","","","","","","","","","Stimulus Presentation","380","2.1.0","290843","5fec594488f057dbd3bdec07","Prolific","0","","null","","53","2","","null","342","313","313","29","w","true","3.350000000000002","","","","","",""
"","","","","","","","","","","","Stimulus Response","381","2.1.0","291371","5fec594488f057dbd3bdec07","Prolific","0","","526","","53","2","","w","","","","","","","","1","","","","",""
"","","","","","","","","","","","Feedback","382","2.1.0","291873","5fec594488f057dbd3bdec07","Prolific","0","","null","","53","2","","null","","","","","","","","","","","","",""
"","","","","","","","","","","","Confidence Rating","383","2.1.0","293186","5fec594488f057dbd3bdec07","Prolific","0","","1311","","53","2","<h3>Rate your confidence:</h3>
            <div id=""conf1"" class=""conf"" style=""height:25px; width:154px; margin-top:2px; margin-left:15px;""></div>
            <div id=""conf2"" class=""conf"" style=""height:25px; width:154px; margin-top:2px; margin-left:169px;""></div>
            <div id=""conf3"" class=""conf"" style=""height:25px; width:154px; margin-top:2px; margin-left:323px;""></div>
            <div id=""conf4"" class=""conf"" style=""height:25px; width:154px; margin-top:2px; margin-left:477px;""></div>
          <div id=""conf5"" class=""conf"" style=""height:25px; width:154px; margin-top:2px; margin-left:631px;""></div>","5","","","","","","","","","","","","50",""
"","","","","","","","","","","","Summary Trial","384","2.1.0","293186","5fec594488f057dbd3bdec07","Prolific","0","","526","","53","2","","w","342","313","","","","true","3.350000000000002","1","","Test","29","","5"
"","","","","","","","","","","","html-keyboard-response","386","2.1.0","294195","5fec594488f057dbd3bdec07","Prolific","0","","null","","54","2","<p style=""font-size: 70pt;"">+</p>","null","","","","","","","","","","","","",""
"","","","","","","","","","","","Stimulus Presentation","387","2.1.0","294504","5fec594488f057dbd3bdec07","Prolific","0","","null","","54","2","","null","313","342","313","29","e","false","3.350000000000002","","","","","",""
"","","","","","","","","","","","Stimulus Response","388","2.1.0","295314","5fec594488f057dbd3bdec07","Prolific","0","","810","","54","2","","w","","","","","","","","0","","","","",""
"","","","","","","","","","","","Feedback","389","2.1.0","295826","5fec594488f057dbd3bdec07","Prolific","0","","null","","54","2","","null","","","","","","","","","","","","",""
"","","","","","","","","","","","Confidence Rating","390","2.1.0","299034","5fec594488f057dbd3bdec07","Prolific","0","","3207","","54","2","<h3>Rate your confidence:</h3>
            <div id=""conf1"" class=""conf"" style=""height:25px; width:154px; margin-top:2px; margin-left:15px;""></div>
            <div id=""conf2"" class=""conf"" style=""height:25px; width:154px; margin-top:2px; margin-left:169px;""></div>
            <div id=""conf3"" class=""conf"" style=""height:25px; width:154px; margin-top:2px; margin-left:323px;""></div>
            <div id=""conf4"" class=""conf"" style=""height:25px; width:154px; margin-top:2px; margin-left:477px;""></div>
          <div id=""conf5"" class=""conf"" style=""height:25px; width:154px; margin-top:2px; margin-left:631px;""></div>","4","","","","","","","","","","","","50",""
"","","","","","","","","","","","Summary Trial","391","2.1.0","299035","5fec594488f057dbd3bdec07","Prolific","0","","810","","54","2","","w","313","342","","","","false","3.350000000000002","0","","Test","29","","4"
"","","","","","","","","","","","html-keyboard-response","393","2.1.0","300037","5fec594488f057dbd3bdec07","Prolific","0","","null","","55","2","<p style=""font-size: 70pt;"">+</p>","null","","","","","","","","","","","","",""
"","","","","","","","","","","","Stimulus Presentation","394","2.1.0","300348","5fec594488f057dbd3bdec07","Prolific","0","","null","","55","2","","null","313","345","313","32","e","false","3.450000000000002","","","","","",""
"","","","","","","","","","","","Stimulus Response","395","2.1.0","300867","5fec594488f057dbd3bdec07","Prolific","0","","518","","55","2","","e","","","","","","","","1","","","","",""
"","","","","","","","","","","","Feedback","396","2.1.0","301374","5fec594488f057dbd3bdec07","Prolific","0","","null","","55","2","","null","","","","","","","","","","","","",""
"","","","","","","","","","","","Confidence Rating","397","2.1.0","303538","5fec594488f057dbd3bdec07","Prolific","0","","2161","","55","2","<h3>Rate your confidence:</h3>
            <div id=""conf1"" class=""conf"" style=""height:25px; width:154px; margin-top:2px; margin-left:15px;""></div>
            <div id=""conf2"" class=""conf"" style=""height:25px; width:154px; margin-top:2px; margin-left:169px;""></div>
            <div id=""conf3"" class=""conf"" style=""height:25px; width:154px; margin-top:2px; margin-left:323px;""></div>
            <div id=""conf4"" class=""conf"" style=""height:25px; width:154px; margin-top:2px; margin-left:477px;""></div>
          <div id=""conf5"" class=""conf"" style=""height:25px; width:154px; margin-top:2px; margin-left:631px;""></div>","3","","","","","","","","","","","","50",""
"","","","","","","","","","","","Summary Trial","398","2.1.0","303538","5fec594488f057dbd3bdec07","Prolific","0","","518","","55","2","","e","313","345","","","","false","3.450000000000002","1","","Test","32","","3"
"","","","","","","","","","","","html-keyboard-response","400","2.1.0","304551","5fec594488f057dbd3bdec07","Prolific","0","","null","","56","2","<p style=""font-size: 70pt;"">+</p>","null","","","","","","","","","","","","",""
"","","","","","","","","","","","Stimulus Presentation","401","2.1.0","304854","5fec594488f057dbd3bdec07","Prolific","0","","null","","56","2","","null","345","313","313","32","w","true","3.450000000000002","","","","","",""
"","","","","","","","","","","","Stimulus Response","402","2.1.0","305395","5fec594488f057dbd3bdec07","Prolific","0","","540","","56","2","","w","","","","","","","","1","","","","",""
"","","","","","","","","","","","Feedback","403","2.1.0","305897","5fec594488f057dbd3bdec07","Prolific","0","","null","","56","2","","null","","","","","","","","","","","","",""
"","","","","","","","","","","","Confidence Rating","404","2.1.0","307138","5fec594488f057dbd3bdec07","Prolific","0","","1239","","56","2","<h3>Rate your confidence:</h3>
            <div id=""conf1"" class=""conf"" style=""height:25px; width:154px; margin-top:2px; margin-left:15px;""></div>
            <div id=""conf2"" class=""conf"" style=""height:25px; width:154px; margin-top:2px; margin-left:169px;""></div>
            <div id=""conf3"" class=""conf"" style=""height:25px; width:154px; margin-top:2px; margin-left:323px;""></div>
            <div id=""conf4"" class=""conf"" style=""height:25px; width:154px; margin-top:2px; margin-left:477px;""></div>
          <div id=""conf5"" class=""conf"" style=""height:25px; width:154px; margin-top:2px; margin-left:631px;""></div>","5","","","","","","","","","","","","50",""
"","","","","","","","","","","","Summary Trial","405","2.1.0","307139","5fec594488f057dbd3bdec07","Prolific","0","","540","","56","2","","w","345","313","","","","true","3.450000000000002","1","","Test","32","","5"
"","","","","","","","","","","","html-keyboard-response","407","2.1.0","308142","5fec594488f057dbd3bdec07","Prolific","0","","null","","57","2","<p style=""font-size: 70pt;"">+</p>","null","","","","","","","","","","","","",""
"","","","","","","","","","","","Stimulus Presentation","408","2.1.0","308453","5fec594488f057dbd3bdec07","Prolific","0","","null","","57","2","","null","313","342","313","29","e","false","3.350000000000002","","","","","",""
"","","","","","","","","","","","Stimulus Response","409","2.1.0","309306","5fec594488f057dbd3bdec07","Prolific","0","","852","","57","2","","e","","","","","","","","1","","","","",""
"","","","","","","","","","","","Feedback","410","2.1.0","309807","5fec594488f057dbd3bdec07","Prolific","0","","null","","57","2","","null","","","","","","","","","","","","",""
"","","","","","","","","","","","Confidence Rating","411","2.1.0","311258","5fec594488f057dbd3bdec07","Prolific","0","","1450","","57","2","<h3>Rate your confidence:</h3>
            <div id=""conf1"" class=""conf"" style=""height:25px; width:154px; margin-top:2px; margin-left:15px;""></div>
            <div id=""conf2"" class=""conf"" style=""height:25px; width:154px; margin-top:2px; margin-left:169px;""></div>
            <div id=""conf3"" class=""conf"" style=""height:25px; width:154px; margin-top:2px; margin-left:323px;""></div>
            <div id=""conf4"" class=""conf"" style=""height:25px; width:154px; margin-top:2px; margin-left:477px;""></div>
          <div id=""conf5"" class=""conf"" style=""height:25px; width:154px; margin-top:2px; margin-left:631px;""></div>","4","","","","","","","","","","","","50",""
"","","","","","","","","","","","Summary Trial","412","2.1.0","311258","5fec594488f057dbd3bdec07","Prolific","0","","852","","57","2","","e","313","342","","","","false","3.350000000000002","1","","Test","29","","4"
"","","","","","","","","","","","html-keyboard-response","414","2.1.0","312272","5fec594488f057dbd3bdec07","Prolific","0","","null","","58","2","<p style=""font-size: 70pt;"">+</p>","null","","","","","","","","","","","","",""
"","","","","","","","","","","","Stimulus Presentation","415","2.1.0","312575","5fec594488f057dbd3bdec07","Prolific","0","","null","","58","2","","null","342","313","313","29","w","true","3.350000000000002","","","","","",""
"","","","","","","","","","","","Stimulus Response","416","2.1.0","313322","5fec594488f057dbd3bdec07","Prolific","0","","747","","58","2","","w","","","","","","","","1","","","","",""
"","","","","","","","","","","","Feedback","417","2.1.0","313825","5fec594488f057dbd3bdec07","Prolific","0","","null","","58","2","","null","","","","","","","","","","","","",""
"","","","","","","","","","","","Confidence Rating","418","2.1.0","315226","5fec594488f057dbd3bdec07","Prolific","0","","1400","","58","2","<h3>Rate your confidence:</h3>
            <div id=""conf1"" class=""conf"" style=""height:25px; width:154px; margin-top:2px; margin-left:15px;""></div>
            <div id=""conf2"" class=""conf"" style=""height:25px; width:154px; margin-top:2px; margin-left:169px;""></div>
            <div id=""conf3"" class=""conf"" style=""height:25px; width:154px; margin-top:2px; margin-left:323px;""></div>
            <div id=""conf4"" class=""conf"" style=""height:25px; width:154px; margin-top:2px; margin-left:477px;""></div>
          <div id=""conf5"" class=""conf"" style=""height:25px; width:154px; margin-top:2px; margin-left:631px;""></div>","4","","","","","","","","","","","","50",""
"","","","","","","","","","","","Summary Trial","419","2.1.0","315227","5fec594488f057dbd3bdec07","Prolific","0","","747","","58","2","","w","342","313","","","","true","3.350000000000002","1","","Test","29","","4"
"","","","","","","","","","","","html-keyboard-response","421","2.1.0","316234","5fec594488f057dbd3bdec07","Prolific","0","","null","","59","2","<p style=""font-size: 70pt;"">+</p>","null","","","","","","","","","","","","",""
"","","","","","","","","","","","Stimulus Presentation","422","2.1.0","316548","5fec594488f057dbd3bdec07","Prolific","0","","null","","59","2","","null","313","339","313","26","e","false","3.2500000000000018","","","","","",""
"","","","","","","","","","","","Stimulus Response","423","2.1.0","317362","5fec594488f057dbd3bdec07","Prolific","0","","813","","59","2","","e","","","","","","","","1","","","","",""
"","","","","","","","","","","","Feedback","424","2.1.0","317863","5fec594488f057dbd3bdec07","Prolific","0","","null","","59","2","","null","","","","","","","","","","","","",""
"","","","","","","","","","","","Confidence Rating","425","2.1.0","319411","5fec594488f057dbd3bdec07","Prolific","0","","1547","","59","2","<h3>Rate your confidence:</h3>
            <div id=""conf1"" class=""conf"" style=""height:25px; width:154px; margin-top:2px; margin-left:15px;""></div>
            <div id=""conf2"" class=""conf"" style=""height:25px; width:154px; margin-top:2px; margin-left:169px;""></div>
            <div id=""conf3"" class=""conf"" style=""height:25px; width:154px; margin-top:2px; margin-left:323px;""></div>
            <div id=""conf4"" class=""conf"" style=""height:25px; width:154px; margin-top:2px; margin-left:477px;""></div>
          <div id=""conf5"" class=""conf"" style=""height:25px; width:154px; margin-top:2px; margin-left:631px;""></div>","2","","","","","","","","","","","","50",""
"","","","","","","","","","","","Summary Trial","426","2.1.0","319411","5fec594488f057dbd3bdec07","Prolific","0","","813","","59","2","","e","313","339","","","","false","3.2500000000000018","1","","Test","26","","2"
"","","","","","","","","","","","html-keyboard-response","428","2.1.0","320421","5fec594488f057dbd3bdec07","Prolific","0","","null","","60","2","<p style=""font-size: 70pt;"">+</p>","null","","","","","","","","","","","","",""
"","","","","","","","","","","","Stimulus Presentation","429","2.1.0","320732","5fec594488f057dbd3bdec07","Prolific","0","","null","","60","2","","null","339","313","313","26","w","true","3.2500000000000018","","","","","",""
"","","","","","","","","","","","Stimulus Response","430","2.1.0","321707","5fec594488f057dbd3bdec07","Prolific","0","","973","","60","2","","w","","","","","","","","1","","","","",""
"","","","","","","","","","","","Feedback","431","2.1.0","322224","5fec594488f057dbd3bdec07","Prolific","0","","null","","60","2","","null","","","","","","","","","","","","",""
"","","","","","","","","","","","Confidence Rating","432","2.1.0","324667","5fec594488f057dbd3bdec07","Prolific","0","","2442","","60","2","<h3>Rate your confidence:</h3>
            <div id=""conf1"" class=""conf"" style=""height:25px; width:154px; margin-top:2px; margin-left:15px;""></div>
            <div id=""conf2"" class=""conf"" style=""height:25px; width:154px; margin-top:2px; margin-left:169px;""></div>
            <div id=""conf3"" class=""conf"" style=""height:25px; width:154px; margin-top:2px; margin-left:323px;""></div>
            <div id=""conf4"" class=""conf"" style=""height:25px; width:154px; margin-top:2px; margin-left:477px;""></div>
          <div id=""conf5"" class=""conf"" style=""height:25px; width:154px; margin-top:2px; margin-left:631px;""></div>","2","","","","","","","","","","","","50",""
"","","","","","","","","","","","Summary Trial","433","2.1.0","324667","5fec594488f057dbd3bdec07","Prolific","0","","973","","60","2","","w","339","313","","","","true","3.2500000000000018","1","","Test","26","","2"
"","","","","","","","","","","","html-keyboard-response","435","2.1.0","325671","5fec594488f057dbd3bdec07","Prolific","0","","null","","61","2","<p style=""font-size: 70pt;"">+</p>","null","","","","","","","","","","","","",""
"","","","","","","","","","","","Stimulus Presentation","436","2.1.0","325982","5fec594488f057dbd3bdec07","Prolific","0","","null","","61","2","","null","336","313","313","23","w","true","3.1500000000000017","","","","","",""
"","","","","","","","","","","","Stimulus Response","437","2.1.0","327378","5fec594488f057dbd3bdec07","Prolific","0","","1395","","61","2","","w","","","","","","","","1","","","","",""
"","","","","","","","","","","","Feedback","438","2.1.0","327879","5fec594488f057dbd3bdec07","Prolific","0","","null","","61","2","","null","","","","","","","","","","","","",""
"","","","","","","","","","","","Confidence Rating","439","2.1.0","329890","5fec594488f057dbd3bdec07","Prolific","0","","2009","","61","2","<h3>Rate your confidence:</h3>
            <div id=""conf1"" class=""conf"" style=""height:25px; width:154px; margin-top:2px; margin-left:15px;""></div>
            <div id=""conf2"" class=""conf"" style=""height:25px; width:154px; margin-top:2px; margin-left:169px;""></div>
            <div id=""conf3"" class=""conf"" style=""height:25px; width:154px; margin-top:2px; margin-left:323px;""></div>
            <div id=""conf4"" class=""conf"" style=""height:25px; width:154px; margin-top:2px; margin-left:477px;""></div>
          <div id=""conf5"" class=""conf"" style=""height:25px; width:154px; margin-top:2px; margin-left:631px;""></div>","1","","","","","","","","","","","","50",""
"","","","","","","","","","","","Summary Trial","440","2.1.0","329891","5fec594488f057dbd3bdec07","Prolific","0","","1395","","61","2","","w","336","313","","","","true","3.1500000000000017","1","","Test","23","","1"
"","","","","","","","","","","","html-keyboard-response","442","2.1.0","330898","5fec594488f057dbd3bdec07","Prolific","0","","null","","62","2","<p style=""font-size: 70pt;"">+</p>","null","","","","","","","","","","","","",""
"","","","","","","","","","","","Stimulus Presentation","443","2.1.0","331202","5fec594488f057dbd3bdec07","Prolific","0","","null","","62","2","","null","313","336","313","23","e","false","3.1500000000000017","","","","","",""
"","","","","","","","","","","","Stimulus Response","444","2.1.0","331787","5fec594488f057dbd3bdec07","Prolific","0","","583","","62","2","","e","","","","","","","","1","","","","",""
"","","","","","","","","","","","Feedback","445","2.1.0","332290","5fec594488f057dbd3bdec07","Prolific","0","","null","","62","2","","null","","","","","","","","","","","","",""
