"width","height","webaudio","browser","browser_version","mobile","os","fullscreen","vsync_rate","webcam","microphone","trial_type","trial_index","plugin_version","time_elapsed","participant_id","Source","condition","success","rt","view_history","trialnum","blocknum","stimulus","response","leftDots","rightDots","baseline","increment","correct_key","target_left","current_log","correct","value","phase","dot_difference","slider_start","confidence"
"1366","599","true","chrome","135.0.0","false","Windows 10","true","60.01","true","true","browser-check","0","2.1.0","1011","65456ebc819cdd5600552571","Prolific","0","","","","","","","","","","","","","","","","","","","",""
"","","","","","","","","","","","fullscreen","1","2.1.0","9257","65456ebc819cdd5600552571","Prolific","0","true","7233","","","","","","","","","","","","","","","","","",""
"","","","","","","","","","","","instructions","2","2.1.0","38497","65456ebc819cdd5600552571","Prolific","0","","29238","[{""page_index"":0,""viewing_time"":29238}]","","","","","","","","","","","","","","","","",""
"","","","","","","","","","","","instructions","5","2.1.0","77067","65456ebc819cdd5600552571","Prolific","0","","38567","[{""page_index"":0,""viewing_time"":30825},{""page_index"":1,""viewing_time"":7742}]","","","","","","","","","","","","","","","","",""
"","","","","","","","","","","","html-keyboard-response","7","2.1.0","78082","65456ebc819cdd5600552571","Prolific","0","","null","","1","1","<p style=""font-size: 70pt;"">+</p>","null","","","","","","","","","","","","",""
"","","","","","","","","","","","Stimulus Presentation","8","2.1.0","78392","65456ebc819cdd5600552571","Prolific","0","","null","","1","1","","null","313","383","313","70","e","false","4.25","","","","","",""
"","","","","","","","","","","","Stimulus Response","9","2.1.0","83572","65456ebc819cdd5600552571","Prolific","0","","5179","","1","1","","w","","","","","","","","0","","","","",""
"","","","","","","","","","","","Feedback","10","2.1.0","84085","65456ebc819cdd5600552571","Prolific","0","","null","","1","1","","null","","","","","","","","","","","","",""
"","","","","","","","","","","","Summary Trial","12","2.1.0","84086","65456ebc819cdd5600552571","Prolific","0","","5179","","1","1","","w","313","383","","","","false","4.25","0","","Practice","70","",""
"","","","","","","","","","","","html-keyboard-response","14","2.1.0","85096","65456ebc819cdd5600552571","Prolific","0","","null","","2","1","<p style=""font-size: 70pt;"">+</p>","null","","","","","","","","","","","","",""
"","","","","","","","","","","","Stimulus Presentation","15","2.1.0","85410","65456ebc819cdd5600552571","Prolific","0","","null","","2","1","","null","418","313","313","105","w","true","4.65","","","","","",""
"","","","","","","","","","","","Stimulus Response","16","2.1.0","87042","65456ebc819cdd5600552571","Prolific","0","","1632","","2","1","","e","","","","","","","","0","","","","",""
"","","","","","","","","","","","Feedback","17","2.1.0","87549","65456ebc819cdd5600552571","Prolific","0","","null","","2","1","","null","","","","","","","","","","","","",""
"","","","","","","","","","","","Summary Trial","19","2.1.0","87549","65456ebc819cdd5600552571","Prolific","0","","1632","","2","1","","e","418","313","","","","true","4.65","0","","Practice","105","",""
"","","","","","","","","","","","html-keyboard-response","21","2.1.0","88562","65456ebc819cdd5600552571","Prolific","0","","null","","3","1","<p style=""font-size: 70pt;"">+</p>","null","","","","","","","","","","","","",""
"","","","","","","","","","","","Stimulus Presentation","22","2.1.0","88873","65456ebc819cdd5600552571","Prolific","0","","null","","3","1","","null","313","469","313","156","e","false","5.050000000000001","","","","","",""
"","","","","","","","","","","","Stimulus Response","23","2.1.0","90822","65456ebc819cdd5600552571","Prolific","0","","1948","","3","1","","e","","","","","","","","1","","","","",""
"","","","","","","","","","","","Feedback","24","2.1.0","91337","65456ebc819cdd5600552571","Prolific","0","","null","","3","1","","null","","","","","","","","","","","","",""
"","","","","","","","","","","","Summary Trial","26","2.1.0","91338","65456ebc819cdd5600552571","Prolific","0","","1948","","3","1","","e","313","469","","","","false","5.050000000000001","1","","Practice","156","",""
"","","","","","","","","","","","html-keyboard-response","28","2.1.0","92351","65456ebc819cdd5600552571","Prolific","0","","null","","4","1","<p style=""font-size: 70pt;"">+</p>","null","","","","","","","","","","","","",""
"","","","","","","","","","","","Stimulus Presentation","29","2.1.0","92659","65456ebc819cdd5600552571","Prolific","0","","null","","4","1","","null","469","313","313","156","w","true","5.050000000000001","","","","","",""
"","","","","","","","","","","","Stimulus Response","30","2.1.0","95150","65456ebc819cdd5600552571","Prolific","0","","2489","","4","1","","w","","","","","","","","1","","","","",""
"","","","","","","","","","","","Feedback","31","2.1.0","95655","65456ebc819cdd5600552571","Prolific","0","","null","","4","1","","null","","","","","","","","","","","","",""
"","","","","","","","","","","","Summary Trial","33","2.1.0","95656","65456ebc819cdd5600552571","Prolific","0","","2489","","4","1","","w","469","313","","","","true","5.050000000000001","1","","Practice","156","",""
"","","","","","","","","","","","html-keyboard-response","35","2.1.0","96669","65456ebc819cdd5600552571","Prolific","0","","null","","5","1","<p style=""font-size: 70pt;"">+</p>","null","","","","","","","","","","","","",""
"","","","","","","","","","","","Stimulus Presentation","36","2.1.0","96978","65456ebc819cdd5600552571","Prolific","0","","null","","5","1","","null","418","313","313","105","w","true","4.65","","","","","",""
"","","","","","","","","","","","Stimulus Response","37","2.1.0","100337","65456ebc819cdd5600552571","Prolific","0","","3353","","5","1","","w","","","","","","","","1","","","","",""
"","","","","","","","","","","","Feedback","38","2.1.0","100842","65456ebc819cdd5600552571","Prolific","0","","null","","5","1","","null","","","","","","","","","","","","",""
"","","","","","","","","","","","Summary Trial","40","2.1.0","100843","65456ebc819cdd5600552571","Prolific","0","","3353","","5","1","","w","418","313","","","","true","4.65","1","","Practice","105","",""
"","","","","","","","","","","","html-keyboard-response","42","2.1.0","101857","65456ebc819cdd5600552571","Prolific","0","","null","","6","1","<p style=""font-size: 70pt;"">+</p>","null","","","","","","","","","","","","",""
"","","","","","","","","","","","Stimulus Presentation","43","2.1.0","102167","65456ebc819cdd5600552571","Prolific","0","","null","","6","1","","null","313","418","313","105","e","false","4.65","","","","","",""
"","","","","","","","","","","","Stimulus Response","44","2.1.0","103772","65456ebc819cdd5600552571","Prolific","0","","1605","","6","1","","e","","","","","","","","1","","","","",""
"","","","","","","","","","","","Feedback","45","2.1.0","104278","65456ebc819cdd5600552571","Prolific","0","","null","","6","1","","null","","","","","","","","","","","","",""
"","","","","","","","","","","","Summary Trial","47","2.1.0","104279","65456ebc819cdd5600552571","Prolific","0","","1605","","6","1","","e","313","418","","","","false","4.65","1","","Practice","105","",""
"","","","","","","","","","","","html-keyboard-response","49","2.1.0","105280","65456ebc819cdd5600552571","Prolific","0","","null","","7","1","<p style=""font-size: 70pt;"">+</p>","null","","","","","","","","","","","","",""
"","","","","","","","","","","","Stimulus Presentation","50","2.1.0","105592","65456ebc819cdd5600552571","Prolific","0","","null","","7","1","","null","399","313","313","86","w","true","4.45","","","","","",""
"","","","","","","","","","","","Stimulus Response","51","2.1.0","107062","65456ebc819cdd5600552571","Prolific","0","","1469","","7","1","","w","","","","","","","","1","","","","",""
"","","","","","","","","","","","Feedback","52","2.1.0","107576","65456ebc819cdd5600552571","Prolific","0","","null","","7","1","","null","","","","","","","","","","","","",""
"","","","","","","","","","","","Summary Trial","54","2.1.0","107577","65456ebc819cdd5600552571","Prolific","0","","1469","","7","1","","w","399","313","","","","true","4.45","1","","Practice","86","",""
"","","","","","","","","","","","html-keyboard-response","56","2.1.0","108579","65456ebc819cdd5600552571","Prolific","0","","null","","8","1","<p style=""font-size: 70pt;"">+</p>","null","","","","","","","","","","","","",""
"","","","","","","","","","","","Stimulus Presentation","57","2.1.0","108897","65456ebc819cdd5600552571","Prolific","0","","null","","8","1","","null","313","399","313","86","e","false","4.45","","","","","",""
"","","","","","","","","","","","Stimulus Response","58","2.1.0","109900","65456ebc819cdd5600552571","Prolific","0","","1002","","8","1","","e","","","","","","","","1","","","","",""
"","","","","","","","","","","","Feedback","59","2.1.0","110416","65456ebc819cdd5600552571","Prolific","0","","null","","8","1","","null","","","","","","","","","","","","",""
"","","","","","","","","","","","Summary Trial","61","2.1.0","110416","65456ebc819cdd5600552571","Prolific","0","","1002","","8","1","","e","313","399","","","","false","4.45","1","","Practice","86","",""
"","","","","","","","","","","","html-keyboard-response","63","2.1.0","111424","65456ebc819cdd5600552571","Prolific","0","","null","","9","1","<p style=""font-size: 70pt;"">+</p>","null","","","","","","","","","","","","",""
"","","","","","","","","","","","Stimulus Presentation","64","2.1.0","111739","65456ebc819cdd5600552571","Prolific","0","","null","","9","1","","null","383","313","313","70","w","true","4.25","","","","","",""
"","","","","","","","","","","","Stimulus Response","65","2.1.0","113043","65456ebc819cdd5600552571","Prolific","0","","1302","","9","1","","e","","","","","","","","0","","","","",""
"","","","","","","","","","","","Feedback","66","2.1.0","113551","65456ebc819cdd5600552571","Prolific","0","","null","","9","1","","null","","","","","","","","","","","","",""
"","","","","","","","","","","","Summary Trial","68","2.1.0","113552","65456ebc819cdd5600552571","Prolific","0","","1302","","9","1","","e","383","313","","","","true","4.25","0","","Practice","70","",""
"","","","","","","","","","","","html-keyboard-response","70","2.1.0","114561","65456ebc819cdd5600552571","Prolific","0","","null","","10","1","<p style=""font-size: 70pt;"">+</p>","null","","","","","","","","","","","","",""
"","","","","","","","","","","","Stimulus Presentation","71","2.1.0","114876","65456ebc819cdd5600552571","Prolific","0","","null","","10","1","","null","313","399","313","86","e","false","4.45","","","","","",""
"","","","","","","","","","","","Stimulus Response","72","2.1.0","115646","65456ebc819cdd5600552571","Prolific","0","","768","","10","1","","e","","","","","","","","1","","","","",""
"","","","","","","","","","","","Feedback","73","2.1.0","116158","65456ebc819cdd5600552571","Prolific","0","","null","","10","1","","null","","","","","","","","","","","","",""
"","","","","","","","","","","","Summary Trial","75","2.1.0","116159","65456ebc819cdd5600552571","Prolific","0","","768","","10","1","","e","313","399","","","","false","4.45","1","","Practice","86","",""
"","","","","","","","","","","","html-keyboard-response","77","2.1.0","117167","65456ebc819cdd5600552571","Prolific","0","","null","","11","1","<p style=""font-size: 70pt;"">+</p>","null","","","","","","","","","","","","",""
"","","","","","","","","","","","Stimulus Presentation","78","2.1.0","117484","65456ebc819cdd5600552571","Prolific","0","","null","","11","1","","null","399","313","313","86","w","true","4.45","","","","","",""
"","","","","","","","","","","","Stimulus Response","79","2.1.0","118580","65456ebc819cdd5600552571","Prolific","0","","1096","","11","1","","w","","","","","","","","1","","","","",""
"","","","","","","","","","","","Feedback","80","2.1.0","119089","65456ebc819cdd5600552571","Prolific","0","","null","","11","1","","null","","","","","","","","","","","","",""
"","","","","","","","","","","","Summary Trial","82","2.1.0","119089","65456ebc819cdd5600552571","Prolific","0","","1096","","11","1","","w","399","313","","","","true","4.45","1","","Practice","86","",""
"","","","","","","","","","","","html-keyboard-response","84","2.1.0","120105","65456ebc819cdd5600552571","Prolific","0","","null","","12","1","<p style=""font-size: 70pt;"">+</p>","null","","","","","","","","","","","","",""
"","","","","","","","","","","","Stimulus Presentation","85","2.1.0","120413","65456ebc819cdd5600552571","Prolific","0","","null","","12","1","","null","313","390","313","77","e","false","4.3500000000000005","","","","","",""
"","","","","","","","","","","","Stimulus Response","86","2.1.0","121500","65456ebc819cdd5600552571","Prolific","0","","1086","","12","1","","e","","","","","","","","1","","","","",""
"","","","","","","","","","","","Feedback","87","2.1.0","122014","65456ebc819cdd5600552571","Prolific","0","","null","","12","1","","null","","","","","","","","","","","","",""
"","","","","","","","","","","","Summary Trial","89","2.1.0","122015","65456ebc819cdd5600552571","Prolific","0","","1086","","12","1","","e","313","390","","","","false","4.3500000000000005","1","","Practice","77","",""
"","","","","","","","","","","","html-keyboard-response","91","2.1.0","123029","65456ebc819cdd5600552571","Prolific","0","","null","","13","1","<p style=""font-size: 70pt;"">+</p>","null","","","","","","","","","","","","",""
"","","","","","","","","","","","Stimulus Presentation","92","2.1.0","123344","65456ebc819cdd5600552571","Prolific","0","","null","","13","1","","null","390","313","313","77","w","true","4.3500000000000005","","","","","",""
"","","","","","","","","","","","Stimulus Response","93","2.1.0","124278","65456ebc819cdd5600552571","Prolific","0","","933","","13","1","","w","","","","","","","","1","","","","",""
"","","","","","","","","","","","Feedback","94","2.1.0","124786","65456ebc819cdd5600552571","Prolific","0","","null","","13","1","","null","","","","","","","","","","","","",""
"","","","","","","","","","","","Summary Trial","96","2.1.0","124786","65456ebc819cdd5600552571","Prolific","0","","933","","13","1","","w","390","313","","","","true","4.3500000000000005","1","","Practice","77","",""
"","","","","","","","","","","","html-keyboard-response","98","2.1.0","125792","65456ebc819cdd5600552571","Prolific","0","","null","","14","1","<p style=""font-size: 70pt;"">+</p>","null","","","","","","","","","","","","",""
"","","","","","","","","","","","Stimulus Presentation","99","2.1.0","126105","65456ebc819cdd5600552571","Prolific","0","","null","","14","1","","null","313","383","313","70","e","false","4.250000000000001","","","","","",""
"","","","","","","","","","","","Stimulus Response","100","2.1.0","126627","65456ebc819cdd5600552571","Prolific","0","","521","","14","1","","e","","","","","","","","1","","","","",""
"","","","","","","","","","","","Feedback","101","2.1.0","127131","65456ebc819cdd5600552571","Prolific","0","","null","","14","1","","null","","","","","","","","","","","","",""
"","","","","","","","","","","","Summary Trial","103","2.1.0","127131","65456ebc819cdd5600552571","Prolific","0","","521","","14","1","","e","313","383","","","","false","4.250000000000001","1","","Practice","70","",""
"","","","","","","","","","","","html-keyboard-response","105","2.1.0","128133","65456ebc819cdd5600552571","Prolific","0","","null","","15","1","<p style=""font-size: 70pt;"">+</p>","null","","","","","","","","","","","","",""
"","","","","","","","","","","","Stimulus Presentation","106","2.1.0","128449","65456ebc819cdd5600552571","Prolific","0","","null","","15","1","","null","383","313","313","70","w","true","4.250000000000001","","","","","",""
"","","","","","","","","","","","Stimulus Response","107","2.1.0","129123","65456ebc819cdd5600552571","Prolific","0","","673","","15","1","","w","","","","","","","","1","","","","",""
"","","","","","","","","","","","Feedback","108","2.1.0","129632","65456ebc819cdd5600552571","Prolific","0","","null","","15","1","","null","","","","","","","","","","","","",""
"","","","","","","","","","","","Summary Trial","110","2.1.0","129632","65456ebc819cdd5600552571","Prolific","0","","673","","15","1","","w","383","313","","","","true","4.250000000000001","1","","Practice","70","",""
"","","","","","","","","","","","html-keyboard-response","112","2.1.0","130645","65456ebc819cdd5600552571","Prolific","0","","null","","16","1","<p style=""font-size: 70pt;"">+</p>","null","","","","","","","","","","","","",""
"","","","","","","","","","","","Stimulus Presentation","113","2.1.0","130958","65456ebc819cdd5600552571","Prolific","0","","null","","16","1","","null","313","376","313","63","e","false","4.150000000000001","","","","","",""
"","","","","","","","","","","","Stimulus Response","114","2.1.0","131434","65456ebc819cdd5600552571","Prolific","0","","475","","16","1","","e","","","","","","","","1","","","","",""
"","","","","","","","","","","","Feedback","115","2.1.0","131948","65456ebc819cdd5600552571","Prolific","0","","null","","16","1","","null","","","","","","","","","","","","",""
"","","","","","","","","","","","Summary Trial","117","2.1.0","131948","65456ebc819cdd5600552571","Prolific","0","","475","","16","1","","e","313","376","","","","false","4.150000000000001","1","","Practice","63","",""
"","","","","","","","","","","","html-keyboard-response","119","2.1.0","132957","65456ebc819cdd5600552571","Prolific","0","","null","","17","1","<p style=""font-size: 70pt;"">+</p>","null","","","","","","","","","","","","",""
"","","","","","","","","","","","Stimulus Presentation","120","2.1.0","133274","65456ebc819cdd5600552571","Prolific","0","","null","","17","1","","null","376","313","313","63","w","true","4.150000000000001","","","","","",""
"","","","","","","","","","","","Stimulus Response","121","2.1.0","133948","65456ebc819cdd5600552571","Prolific","0","","673","","17","1","","w","","","","","","","","1","","","","",""
"","","","","","","","","","","","Feedback","122","2.1.0","134451","65456ebc819cdd5600552571","Prolific","0","","null","","17","1","","null","","","","","","","","","","","","",""
"","","","","","","","","","","","Summary Trial","124","2.1.0","134452","65456ebc819cdd5600552571","Prolific","0","","673","","17","1","","w","376","313","","","","true","4.150000000000001","1","","Practice","63","",""
"","","","","","","","","","","","html-keyboard-response","126","2.1.0","135456","65456ebc819cdd5600552571","Prolific","0","","null","","18","1","<p style=""font-size: 70pt;"">+</p>","null","","","","","","","","","","","","",""
"","","","","","","","","","","","Stimulus Presentation","127","2.1.0","135771","65456ebc819cdd5600552571","Prolific","0","","null","","18","1","","null","313","370","313","57","e","false","4.050000000000002","","","","","",""
"","","","","","","","","","","","Stimulus Response","128","2.1.0","136085","65456ebc819cdd5600552571","Prolific","0","","314","","18","1","","e","","","","","","","","1","","","","",""
"","","","","","","","","","","","Feedback","129","2.1.0","136590","65456ebc819cdd5600552571","Prolific","0","","null","","18","1","","null","","","","","","","","","","","","",""
"","","","","","","","","","","","Summary Trial","131","2.1.0","136591","65456ebc819cdd5600552571","Prolific","0","","314","","18","1","","e","313","370","","","","false","4.050000000000002","1","","Practice","57","",""
"","","","","","","","","","","","html-keyboard-response","133","2.1.0","137605","65456ebc819cdd5600552571","Prolific","0","","null","","19","1","<p style=""font-size: 70pt;"">+</p>","null","","","","","","","","","","","","",""
"","","","","","","","","","","","Stimulus Presentation","134","2.1.0","137914","65456ebc819cdd5600552571","Prolific","0","","null","","19","1","","null","370","313","313","57","w","true","4.050000000000002","","","","","",""
"","","","","","","","","","","","Stimulus Response","135","2.1.0","138604","65456ebc819cdd5600552571","Prolific","0","","690","","19","1","","w","","","","","","","","1","","","","",""
"","","","","","","","","","","","Feedback","136","2.1.0","139106","65456ebc819cdd5600552571","Prolific","0","","null","","19","1","","null","","","","","","","","","","","","",""
"","","","","","","","","","","","Summary Trial","138","2.1.0","139107","65456ebc819cdd5600552571","Prolific","0","","690","","19","1","","w","370","313","","","","true","4.050000000000002","1","","Practice","57","",""
"","","","","","","","","","","","html-keyboard-response","140","2.1.0","140112","65456ebc819cdd5600552571","Prolific","0","","null","","20","1","<p style=""font-size: 70pt;"">+</p>","null","","","","","","","","","","","","",""
"","","","","","","","","","","","Stimulus Presentation","141","2.1.0","140425","65456ebc819cdd5600552571","Prolific","0","","null","","20","1","","null","313","365","313","52","e","false","3.9500000000000015","","","","","",""
"","","","","","","","","","","","Stimulus Response","142","2.1.0","140858","65456ebc819cdd5600552571","Prolific","0","","432","","20","1","","e","","","","","","","","1","","","","",""
"","","","","","","","","","","","Feedback","143","2.1.0","141373","65456ebc819cdd5600552571","Prolific","0","","null","","20","1","","null","","","","","","","","","","","","",""
"","","","","","","","","","","","Summary Trial","145","2.1.0","141373","65456ebc819cdd5600552571","Prolific","0","","432","","20","1","","e","313","365","","","","false","3.9500000000000015","1","","Practice","52","",""
"","","","","","","","","","","","html-keyboard-response","147","2.1.0","142389","65456ebc819cdd5600552571","Prolific","0","","null","","21","1","<p style=""font-size: 70pt;"">+</p>","null","","","","","","","","","","","","",""
"","","","","","","","","","","","Stimulus Presentation","148","2.1.0","142702","65456ebc819cdd5600552571","Prolific","0","","null","","21","1","","null","313","365","313","52","e","false","3.9500000000000015","","","","","",""
"","","","","","","","","","","","Stimulus Response","149","2.1.0","143606","65456ebc819cdd5600552571","Prolific","0","","903","","21","1","","w","","","","","","","","0","","","","",""
"","","","","","","","","","","","Feedback","150","2.1.0","144111","65456ebc819cdd5600552571","Prolific","0","","null","","21","1","","null","","","","","","","","","","","","",""
"","","","","","","","","","","","Summary Trial","152","2.1.0","144112","65456ebc819cdd5600552571","Prolific","0","","903","","21","1","","w","313","365","","","","false","3.9500000000000015","0","","Practice","52","",""
"","","","","","","","","","","","html-keyboard-response","154","2.1.0","145124","65456ebc819cdd5600552571","Prolific","0","","null","","22","1","<p style=""font-size: 70pt;"">+</p>","null","","","","","","","","","","","","",""
"","","","","","","","","","","","Stimulus Presentation","155","2.1.0","145434","65456ebc819cdd5600552571","Prolific","0","","null","","22","1","","null","370","313","313","57","w","true","4.050000000000002","","","","","",""
"","","","","","","","","","","","Stimulus Response","156","2.1.0","213659","65456ebc819cdd5600552571","Prolific","0","","68224","","22","1","","w","","","","","","","","1","","","","",""
"","","","","","","","","","","","Feedback","157","2.1.0","214173","65456ebc819cdd5600552571","Prolific","0","","null","","22","1","","null","","","","","","","","","","","","",""
"","","","","","","","","","","","Summary Trial","159","2.1.0","214173","65456ebc819cdd5600552571","Prolific","0","","68224","","22","1","","w","370","313","","","","true","4.050000000000002","1","","Practice","57","",""
"","","","","","","","","","","","html-keyboard-response","161","2.1.0","215175","65456ebc819cdd5600552571","Prolific","0","","null","","23","1","<p style=""font-size: 70pt;"">+</p>","null","","","","","","","","","","","","",""
"","","","","","","","","","","","Stimulus Presentation","162","2.1.0","215488","65456ebc819cdd5600552571","Prolific","0","","null","","23","1","","null","313","370","313","57","e","false","4.050000000000002","","","","","",""
"","","","","","","","","","","","Stimulus Response","163","2.1.0","216130","65456ebc819cdd5600552571","Prolific","0","","642","","23","1","","e","","","","","","","","1","","","","",""
"","","","","","","","","","","","Feedback","164","2.1.0","216651","65456ebc819cdd5600552571","Prolific","0","","null","","23","1","","null","","","","","","","","","","","","",""
"","","","","","","","","","","","Summary Trial","166","2.1.0","216652","65456ebc819cdd5600552571","Prolific","0","","642","","23","1","","e","313","370","","","","false","4.050000000000002","1","","Practice","57","",""
"","","","","","","","","","","","html-keyboard-response","168","2.1.0","217666","65456ebc819cdd5600552571","Prolific","0","","null","","24","1","<p style=""font-size: 70pt;"">+</p>","null","","","","","","","","","","","","",""
"","","","","","","","","","","","Stimulus Presentation","169","2.1.0","217979","65456ebc819cdd5600552571","Prolific","0","","null","","24","1","","null","365","313","313","52","w","true","3.9500000000000015","","","","","",""
"","","","","","","","","","","","Stimulus Response","170","2.1.0","218668","65456ebc819cdd5600552571","Prolific","0","","688","","24","1","","w","","","","","","","","1","","","","",""
"","","","","","","","","","","","Feedback","171","2.1.0","219183","65456ebc819cdd5600552571","Prolific","0","","null","","24","1","","null","","","","","","","","","","","","",""
"","","","","","","","","","","","Summary Trial","173","2.1.0","219183","65456ebc819cdd5600552571","Prolific","0","","688","","24","1","","w","365","313","","","","true","3.9500000000000015","1","","Practice","52","",""
"","","","","","","","","","","","html-keyboard-response","175","2.1.0","220196","65456ebc819cdd5600552571","Prolific","0","","null","","25","1","<p style=""font-size: 70pt;"">+</p>","null","","","","","","","","","","","","",""
"","","","","","","","","","","","Stimulus Presentation","176","2.1.0","220509","65456ebc819cdd5600552571","Prolific","0","","null","","25","1","","null","365","313","313","52","w","true","3.9500000000000015","","","","","",""
"","","","","","","","","","","","Stimulus Response","177","2.1.0","220903","65456ebc819cdd5600552571","Prolific","0","","395","","25","1","","e","","","","","","","","0","","","","",""
"","","","","","","","","","","","Feedback","178","2.1.0","221410","65456ebc819cdd5600552571","Prolific","0","","null","","25","1","","null","","","","","","","","","","","","",""
"","","","","","","","","","","","Summary Trial","180","2.1.0","221410","65456ebc819cdd5600552571","Prolific","0","","395","","25","1","","e","365","313","","","","true","3.9500000000000015","0","","Practice","52","",""
"","","","","","","","","","","","html-keyboard-response","182","2.1.0","222421","65456ebc819cdd5600552571","Prolific","0","","null","","26","1","<p style=""font-size: 70pt;"">+</p>","null","","","","","","","","","","","","",""
"","","","","","","","","","","","Stimulus Presentation","183","2.1.0","222735","65456ebc819cdd5600552571","Prolific","0","","null","","26","1","","null","313","370","313","57","e","false","4.050000000000002","","","","","",""
"","","","","","","","","","","","Stimulus Response","184","2.1.0","223478","65456ebc819cdd5600552571","Prolific","0","","742","","26","1","","e","","","","","","","","1","","","","",""
"","","","","","","","","","","","Feedback","185","2.1.0","223981","65456ebc819cdd5600552571","Prolific","0","","null","","26","1","","null","","","","","","","","","","","","",""
"","","","","","","","","","","","Summary Trial","187","2.1.0","223982","65456ebc819cdd5600552571","Prolific","0","","742","","26","1","","e","313","370","","","","false","4.050000000000002","1","","Practice","57","",""
"","","","","","","","","","","","instructions","188","2.1.0","233424","65456ebc819cdd5600552571","Prolific","0","","9442","[{""page_index"":0,""viewing_time"":9442}]","","","","","","","","","","","","","","","","",""
"","","","","","","","","","","","Confidence Rating","189","2.1.0","243851","65456ebc819cdd5600552571","Prolific","0","","10424","","","","A rating scale as shown below is used throughout the task. 
        You will select any point with your mouse.<br>Choose any point on the 
          scale and click &apos;Submit&apos; to continue.<br><br>
            <div id=""conf1"" class=""conf"" style=""height:25px; width:154px; margin-top:2px; margin-left:15px;""></div>
            <div id=""conf2"" class=""conf"" style=""height:25px; width:154px; margin-top:2px; margin-left:169px;""></div>
            <div id=""conf3"" class=""conf"" style=""height:25px; width:154px; margin-top:2px; margin-left:323px;""></div>
            <div id=""conf4"" class=""conf"" style=""height:25px; width:154px; margin-top:2px; margin-left:477px;""></div>
     <div id=""conf5"" class=""conf"" style=""height:25px; width:154px; margin-top:2px; margin-left:631px;""></div>","4","","","","","","","","","","","","50",""
"","","","","","","","","","","","Confidence Rating","190","2.1.0","249489","65456ebc819cdd5600552571","Prolific","0","","5637","","","","During the task, if you are <strong>very sure</strong> that you made the correct judgement, you should respond <strong>&apos;Certain&apos;</strong><br><br>
            <div id=""conf1"" class=""conf"" style=""height:25px; width:154px; margin-top:2px; margin-left:15px;""></div>
            <div id=""conf2"" class=""conf"" style=""height:25px; width:154px; margin-top:2px; margin-left:169px;""></div>
            <div id=""conf3"" class=""conf"" style=""height:25px; width:154px; margin-top:2px; margin-left:323px;""></div>
            <div id=""conf4"" class=""conf"" style=""height:25px; width:154px; margin-top:2px; margin-left:477px;""></div>
   <div id=""conf5"" class=""conf"" style=""height:25px; width:154px; margin-top:2px; margin-left:631px;""></div>","6","","","","","","","","","","","","50",""
"","","","","","","","","","","","Confidence Rating","191","2.1.0","251324","65456ebc819cdd5600552571","Prolific","0","","1831","","","","If you are <strong>very unsure</strong> you made the correct judgement, you should respond <strong>&apos;Guessing&apos;</strong><br><br>
            <div id=""conf1"" class=""conf"" style=""height:25px; width:154px; margin-top:2px; margin-left:15px;""></div>
            <div id=""conf2"" class=""conf"" style=""height:25px; width:154px; margin-top:2px; margin-left:169px;""></div>
            <div id=""conf3"" class=""conf"" style=""height:25px; width:154px; margin-top:2px; margin-left:323px;""></div>
            <div id=""conf4"" class=""conf"" style=""height:25px; width:154px; margin-top:2px; margin-left:477px;""></div>
 <div id=""conf5"" class=""conf"" style=""height:25px; width:154px; margin-top:2px; margin-left:631px;""></div>","1","","","","","","","","","","","","1",""
"","","","","","","","","","","","Confidence Rating","192","2.1.0","253564","65456ebc819cdd5600552571","Prolific","0","","2239","","","","If you are <strong>somewhat sure</strong> about being correct, you should select a rating between the two descriptions.<br><br>
            <div id=""conf1"" class=""conf"" style=""height:25px; width:154px; margin-top:2px; margin-left:15px;""></div>
            <div id=""conf2"" class=""conf"" style=""height:25px; width:154px; margin-top:2px; margin-left:169px;""></div>
            <div id=""conf3"" class=""conf"" style=""height:25px; width:154px; margin-top:2px; margin-left:323px;""></div>
            <div id=""conf4"" class=""conf"" style=""height:25px; width:154px; margin-top:2px; margin-left:477px;""></div>
 <div id=""conf5"" class=""conf"" style=""height:25px; width:154px; margin-top:2px; margin-left:631px;""></div>","4","","","","","","","","","","","","4",""
"","","","","","","","","","","","Confidence Rating","193","2.1.0","263394","65456ebc819cdd5600552571","Prolific","0","","9829","","","","If you understand how to use and take advantage of the whole rating scale, choose any point on the rating scale and click &apos;Submit&apos; to continue.<br><br>
            <div id=""conf1"" class=""conf"" style=""height:25px; width:154px; margin-top:2px; margin-left:15px;""></div>
            <div id=""conf2"" class=""conf"" style=""height:25px; width:154px; margin-top:2px; margin-left:169px;""></div>
            <div id=""conf3"" class=""conf"" style=""height:25px; width:154px; margin-top:2px; margin-left:323px;""></div>
            <div id=""conf4"" class=""conf"" style=""height:25px; width:154px; margin-top:2px; margin-left:477px;""></div>
 <div id=""conf5"" class=""conf"" style=""height:25px; width:154px; margin-top:2px; margin-left:631px;""></div>","5","","","","","","","","","","","","50",""
"","","","","","","","","","","","instructions","194","2.1.0","277142","65456ebc819cdd5600552571","Prolific","0","","13747","[{""page_index"":0,""viewing_time"":13747}]","","","","","","","","","","","","","","","","",""
"","","","","","","","","","","","instructions","195","2.1.0","288759","65456ebc819cdd5600552571","Prolific","0","","11616","[{""page_index"":0,""viewing_time"":11616}]","","","","","","","","","","","","","","","","",""
"","","","","","","","","","","","html-keyboard-response","197","2.1.0","289776","65456ebc819cdd5600552571","Prolific","0","","null","","27","2","<p style=""font-size: 70pt;"">+</p>","null","","","","","","","","","","","","",""
"","","","","","","","","","","","Stimulus Presentation","198","2.1.0","290078","65456ebc819cdd5600552571","Prolific","0","","null","","27","2","","null","370","313","313","57","w","true","4.050000000000002","","","","","",""
"","","","","","","","","","","","Stimulus Response","199","2.1.0","290664","65456ebc819cdd5600552571","Prolific","0","","585","","27","2","","e","","","","","","","","0","","","","",""
"","","","","","","","","","","","Feedback","200","2.1.0","291171","65456ebc819cdd5600552571","Prolific","0","","null","","27","2","","null","","","","","","","","","","","","",""
"","","","","","","","","","","","Confidence Rating","201","2.1.0","295614","65456ebc819cdd5600552571","Prolific","0","","4442","","27","2","<h3>Rate your confidence:</h3>
            <div id=""conf1"" class=""conf"" style=""height:25px; width:154px; margin-top:2px; margin-left:15px;""></div>
            <div id=""conf2"" class=""conf"" style=""height:25px; width:154px; margin-top:2px; margin-left:169px;""></div>
            <div id=""conf3"" class=""conf"" style=""height:25px; width:154px; margin-top:2px; margin-left:323px;""></div>
            <div id=""conf4"" class=""conf"" style=""height:25px; width:154px; margin-top:2px; margin-left:477px;""></div>
          <div id=""conf5"" class=""conf"" style=""height:25px; width:154px; margin-top:2px; margin-left:631px;""></div>","5","","","","","","","","","","","","50",""
"","","","","","","","","","","","Summary Trial","202","2.1.0","295614","65456ebc819cdd5600552571","Prolific","0","","585","","27","2","","e","370","313","","","","true","4.050000000000002","0","","Test","57","","5"
"","","","","","","","","","","","html-keyboard-response","204","2.1.0","296624","65456ebc819cdd5600552571","Prolific","0","","null","","28","2","<p style=""font-size: 70pt;"">+</p>","null","","","","","","","","","","","","",""
"","","","","","","","","","","","Stimulus Presentation","205","2.1.0","296939","65456ebc819cdd5600552571","Prolific","0","","null","","28","2","","null","313","376","313","63","e","false","4.150000000000001","","","","","",""
"","","","","","","","","","","","Stimulus Response","206","2.1.0","297743","65456ebc819cdd5600552571","Prolific","0","","804","","28","2","","w","","","","","","","","0","","","","",""
"","","","","","","","","","","","Feedback","207","2.1.0","298248","65456ebc819cdd5600552571","Prolific","0","","null","","28","2","","null","","","","","","","","","","","","",""
"","","","","","","","","","","","Confidence Rating","208","2.1.0","300940","65456ebc819cdd5600552571","Prolific","0","","2692","","28","2","<h3>Rate your confidence:</h3>
            <div id=""conf1"" class=""conf"" style=""height:25px; width:154px; margin-top:2px; margin-left:15px;""></div>
            <div id=""conf2"" class=""conf"" style=""height:25px; width:154px; margin-top:2px; margin-left:169px;""></div>
            <div id=""conf3"" class=""conf"" style=""height:25px; width:154px; margin-top:2px; margin-left:323px;""></div>
            <div id=""conf4"" class=""conf"" style=""height:25px; width:154px; margin-top:2px; margin-left:477px;""></div>
          <div id=""conf5"" class=""conf"" style=""height:25px; width:154px; margin-top:2px; margin-left:631px;""></div>","2","","","","","","","","","","","","50",""
"","","","","","","","","","","","Summary Trial","209","2.1.0","300941","65456ebc819cdd5600552571","Prolific","0","","804","","28","2","","w","313","376","","","","false","4.150000000000001","0","","Test","63","","2"
"","","","","","","","","","","","html-keyboard-response","211","2.1.0","301952","65456ebc819cdd5600552571","Prolific","0","","null","","29","2","<p style=""font-size: 70pt;"">+</p>","null","","","","","","","","","","","","",""
"","","","","","","","","","","","Stimulus Presentation","212","2.1.0","302268","65456ebc819cdd5600552571","Prolific","0","","null","","29","2","","null","383","313","313","70","w","true","4.250000000000001","","","","","",""
"","","","","","","","","","","","Stimulus Response","213","2.1.0","302846","65456ebc819cdd5600552571","Prolific","0","","577","","29","2","","e","","","","","","","","0","","","","",""
"","","","","","","","","","","","Feedback","214","2.1.0","303352","65456ebc819cdd5600552571","Prolific","0","","null","","29","2","","null","","","","","","","","","","","","",""
"","","","","","","","","","","","Confidence Rating","215","2.1.0","306206","65456ebc819cdd5600552571","Prolific","0","","2853","","29","2","<h3>Rate your confidence:</h3>
            <div id=""conf1"" class=""conf"" style=""height:25px; width:154px; margin-top:2px; margin-left:15px;""></div>
            <div id=""conf2"" class=""conf"" style=""height:25px; width:154px; margin-top:2px; margin-left:169px;""></div>
            <div id=""conf3"" class=""conf"" style=""height:25px; width:154px; margin-top:2px; margin-left:323px;""></div>
            <div id=""conf4"" class=""conf"" style=""height:25px; width:154px; margin-top:2px; margin-left:477px;""></div>
          <div id=""conf5"" class=""conf"" style=""height:25px; width:154px; margin-top:2px; margin-left:631px;""></div>","6","","","","","","","","","","","","50",""
"","","","","","","","","","","","Summary Trial","216","2.1.0","306207","65456ebc819cdd5600552571","Prolific","0","","577","","29","2","","e","383","313","","","","true","4.250000000000001","0","","Test","70","","6"
"","","","","","","","","","","","html-keyboard-response","218","2.1.0","307210","65456ebc819cdd5600552571","Prolific","0","","null","","30","2","<p style=""font-size: 70pt;"">+</p>","null","","","","","","","","","","","","",""
"","","","","","","","","","","","Stimulus Presentation","219","2.1.0","307520","65456ebc819cdd5600552571","Prolific","0","","null","","30","2","","null","313","390","313","77","e","false","4.3500000000000005","","","","","",""
"","","","","","","","","","","","Stimulus Response","220","2.1.0","308471","65456ebc819cdd5600552571","Prolific","0","","950","","30","2","","e","","","","","","","","1","","","","",""
"","","","","","","","","","","","Feedback","221","2.1.0","308983","65456ebc819cdd5600552571","Prolific","0","","null","","30","2","","null","","","","","","","","","","","","",""
"","","","","","","","","","","","Confidence Rating","222","2.1.0","310711","65456ebc819cdd5600552571","Prolific","0","","1727","","30","2","<h3>Rate your confidence:</h3>
            <div id=""conf1"" class=""conf"" style=""height:25px; width:154px; margin-top:2px; margin-left:15px;""></div>
            <div id=""conf2"" class=""conf"" style=""height:25px; width:154px; margin-top:2px; margin-left:169px;""></div>
            <div id=""conf3"" class=""conf"" style=""height:25px; width:154px; margin-top:2px; margin-left:323px;""></div>
            <div id=""conf4"" class=""conf"" style=""height:25px; width:154px; margin-top:2px; margin-left:477px;""></div>
          <div id=""conf5"" class=""conf"" style=""height:25px; width:154px; margin-top:2px; margin-left:631px;""></div>","6","","","","","","","","","","","","50",""
"","","","","","","","","","","","Summary Trial","223","2.1.0","310711","65456ebc819cdd5600552571","Prolific","0","","950","","30","2","","e","313","390","","","","false","4.3500000000000005","1","","Test","77","","6"
"","","","","","","","","","","","html-keyboard-response","225","2.1.0","311719","65456ebc819cdd5600552571","Prolific","0","","null","","31","2","<p style=""font-size: 70pt;"">+</p>","null","","","","","","","","","","","","",""
"","","","","","","","","","","","Stimulus Presentation","226","2.1.0","312033","65456ebc819cdd5600552571","Prolific","0","","null","","31","2","","null","313","390","313","77","e","false","4.3500000000000005","","","","","",""
"","","","","","","","","","","","Stimulus Response","227","2.1.0","312693","65456ebc819cdd5600552571","Prolific","0","","659","","31","2","","e","","","","","","","","1","","","","",""
"","","","","","","","","","","","Feedback","228","2.1.0","313194","65456ebc819cdd5600552571","Prolific","0","","null","","31","2","","null","","","","","","","","","","","","",""
"","","","","","","","","","","","Confidence Rating","229","2.1.0","314858","65456ebc819cdd5600552571","Prolific","0","","1663","","31","2","<h3>Rate your confidence:</h3>
            <div id=""conf1"" class=""conf"" style=""height:25px; width:154px; margin-top:2px; margin-left:15px;""></div>
            <div id=""conf2"" class=""conf"" style=""height:25px; width:154px; margin-top:2px; margin-left:169px;""></div>
            <div id=""conf3"" class=""conf"" style=""height:25px; width:154px; margin-top:2px; margin-left:323px;""></div>
            <div id=""conf4"" class=""conf"" style=""height:25px; width:154px; margin-top:2px; margin-left:477px;""></div>
          <div id=""conf5"" class=""conf"" style=""height:25px; width:154px; margin-top:2px; margin-left:631px;""></div>","6","","","","","","","","","","","","50",""
"","","","","","","","","","","","Summary Trial","230","2.1.0","314859","65456ebc819cdd5600552571","Prolific","0","","659","","31","2","","e","313","390","","","","false","4.3500000000000005","1","","Test","77","","6"
"","","","","","","","","","","","html-keyboard-response","232","2.1.0","315865","65456ebc819cdd5600552571","Prolific","0","","null","","32","2","<p style=""font-size: 70pt;"">+</p>","null","","","","","","","","","","","","",""
"","","","","","","","","","","","Stimulus Presentation","233","2.1.0","316175","65456ebc819cdd5600552571","Prolific","0","","null","","32","2","","null","383","313","313","70","w","true","4.250000000000001","","","","","",""
"","","","","","","","","","","","Stimulus Response","234","2.1.0","317030","65456ebc819cdd5600552571","Prolific","0","","854","","32","2","","w","","","","","","","","1","","","","",""
"","","","","","","","","","","","Feedback","235","2.1.0","317536","65456ebc819cdd5600552571","Prolific","0","","null","","32","2","","null","","","","","","","","","","","","",""
"","","","","","","","","","","","Confidence Rating","236","2.1.0","320559","65456ebc819cdd5600552571","Prolific","0","","3022","","32","2","<h3>Rate your confidence:</h3>
            <div id=""conf1"" class=""conf"" style=""height:25px; width:154px; margin-top:2px; margin-left:15px;""></div>
            <div id=""conf2"" class=""conf"" style=""height:25px; width:154px; margin-top:2px; margin-left:169px;""></div>
            <div id=""conf3"" class=""conf"" style=""height:25px; width:154px; margin-top:2px; margin-left:323px;""></div>
            <div id=""conf4"" class=""conf"" style=""height:25px; width:154px; margin-top:2px; margin-left:477px;""></div>
          <div id=""conf5"" class=""conf"" style=""height:25px; width:154px; margin-top:2px; margin-left:631px;""></div>","4","","","","","","","","","","","","50",""
"","","","","","","","","","","","Summary Trial","237","2.1.0","320559","65456ebc819cdd5600552571","Prolific","0","","854","","32","2","","w","383","313","","","","true","4.250000000000001","1","","Test","70","","4"
"","","","","","","","","","","","html-keyboard-response","239","2.1.0","321571","65456ebc819cdd5600552571","Prolific","0","","null","","33","2","<p style=""font-size: 70pt;"">+</p>","null","","","","","","","","","","","","",""
"","","","","","","","","","","","Stimulus Presentation","240","2.1.0","321879","65456ebc819cdd5600552571","Prolific","0","","null","","33","2","","null","313","383","313","70","e","false","4.250000000000001","","","","","",""
"","","","","","","","","","","","Stimulus Response","241","2.1.0","322508","65456ebc819cdd5600552571","Prolific","0","","628","","33","2","","e","","","","","","","","1","","","","",""
"","","","","","","","","","","","Feedback","242","2.1.0","323014","65456ebc819cdd5600552571","Prolific","0","","null","","33","2","","null","","","","","","","","","","","","",""
"","","","","","","","","","","","Confidence Rating","243","2.1.0","325145","65456ebc819cdd5600552571","Prolific","0","","2130","","33","2","<h3>Rate your confidence:</h3>
            <div id=""conf1"" class=""conf"" style=""height:25px; width:154px; margin-top:2px; margin-left:15px;""></div>
            <div id=""conf2"" class=""conf"" style=""height:25px; width:154px; margin-top:2px; margin-left:169px;""></div>
            <div id=""conf3"" class=""conf"" style=""height:25px; width:154px; margin-top:2px; margin-left:323px;""></div>
            <div id=""conf4"" class=""conf"" style=""height:25px; width:154px; margin-top:2px; margin-left:477px;""></div>
          <div id=""conf5"" class=""conf"" style=""height:25px; width:154px; margin-top:2px; margin-left:631px;""></div>","5","","","","","","","","","","","","50",""
"","","","","","","","","","","","Summary Trial","244","2.1.0","325145","65456ebc819cdd5600552571","Prolific","0","","628","","33","2","","e","313","383","","","","false","4.250000000000001","1","","Test","70","","5"
"","","","","","","","","","","","html-keyboard-response","246","2.1.0","326147","65456ebc819cdd5600552571","Prolific","0","","null","","34","2","<p style=""font-size: 70pt;"">+</p>","null","","","","","","","","","","","","",""
"","","","","","","","","","","","Stimulus Presentation","247","2.1.0","326462","65456ebc819cdd5600552571","Prolific","0","","null","","34","2","","null","376","313","313","63","w","true","4.150000000000001","","","","","",""
"","","","","","","","","","","","Stimulus Response","248","2.1.0","327622","65456ebc819cdd5600552571","Prolific","0","","1160","","34","2","","w","","","","","","","","1","","","","",""
"","","","","","","","","","","","Feedback","249","2.1.0","328128","65456ebc819cdd5600552571","Prolific","0","","null","","34","2","","null","","","","","","","","","","","","",""
"","","","","","","","","","","","Confidence Rating","250","2.1.0","330350","65456ebc819cdd5600552571","Prolific","0","","2221","","34","2","<h3>Rate your confidence:</h3>
            <div id=""conf1"" class=""conf"" style=""height:25px; width:154px; margin-top:2px; margin-left:15px;""></div>
            <div id=""conf2"" class=""conf"" style=""height:25px; width:154px; margin-top:2px; margin-left:169px;""></div>
            <div id=""conf3"" class=""conf"" style=""height:25px; width:154px; margin-top:2px; margin-left:323px;""></div>
            <div id=""conf4"" class=""conf"" style=""height:25px; width:154px; margin-top:2px; margin-left:477px;""></div>
          <div id=""conf5"" class=""conf"" style=""height:25px; width:154px; margin-top:2px; margin-left:631px;""></div>","5","","","","","","","","","","","","50",""
"","","","","","","","","","","","Summary Trial","251","2.1.0","330350","65456ebc819cdd5600552571","Prolific","0","","1160","","34","2","","w","376","313","","","","true","4.150000000000001","1","","Test","63","","5"
"","","","","","","","","","","","html-keyboard-response","253","2.1.0","331356","65456ebc819cdd5600552571","Prolific","0","","null","","35","2","<p style=""font-size: 70pt;"">+</p>","null","","","","","","","","","","","","",""
"","","","","","","","","","","","Stimulus Presentation","254","2.1.0","331672","65456ebc819cdd5600552571","Prolific","0","","null","","35","2","","null","376","313","313","63","w","true","4.150000000000001","","","","","",""
"","","","","","","","","","","","Stimulus Response","255","2.1.0","335942","65456ebc819cdd5600552571","Prolific","0","","4269","","35","2","","e","","","","","","","","0","","","","",""
"","","","","","","","","","","","Feedback","256","2.1.0","336453","65456ebc819cdd5600552571","Prolific","0","","null","","35","2","","null","","","","","","","","","","","","",""
"","","","","","","","","","","","Confidence Rating","257","2.1.0","339000","65456ebc819cdd5600552571","Prolific","0","","2546","","35","2","<h3>Rate your confidence:</h3>
            <div id=""conf1"" class=""conf"" style=""height:25px; width:154px; margin-top:2px; margin-left:15px;""></div>
            <div id=""conf2"" class=""conf"" style=""height:25px; width:154px; margin-top:2px; margin-left:169px;""></div>
            <div id=""conf3"" class=""conf"" style=""height:25px; width:154px; margin-top:2px; margin-left:323px;""></div>
            <div id=""conf4"" class=""conf"" style=""height:25px; width:154px; margin-top:2px; margin-left:477px;""></div>
          <div id=""conf5"" class=""conf"" style=""height:25px; width:154px; margin-top:2px; margin-left:631px;""></div>","3","","","","","","","","","","","","50",""
"","","","","","","","","","","","Summary Trial","258","2.1.0","339000","65456ebc819cdd5600552571","Prolific","0","","4269","","35","2","","e","376","313","","","","true","4.150000000000001","0","","Test","63","","3"
"","","","","","","","","","","","html-keyboard-response","260","2.1.0","340012","65456ebc819cdd5600552571","Prolific","0","","null","","36","2","<p style=""font-size: 70pt;"">+</p>","null","","","","","","","","","","","","",""
"","","","","","","","","","","","Stimulus Presentation","261","2.1.0","340326","65456ebc819cdd5600552571","Prolific","0","","null","","36","2","","null","313","383","313","70","e","false","4.250000000000001","","","","","",""
"","","","","","","","","","","","Stimulus Response","262","2.1.0","340967","65456ebc819cdd5600552571","Prolific","0","","640","","36","2","","e","","","","","","","","1","","","","",""
"","","","","","","","","","","","Feedback","263","2.1.0","341477","65456ebc819cdd5600552571","Prolific","0","","null","","36","2","","null","","","","","","","","","","","","",""
"","","","","","","","","","","","Confidence Rating","264","2.1.0","343004","65456ebc819cdd5600552571","Prolific","0","","1526","","36","2","<h3>Rate your confidence:</h3>
            <div id=""conf1"" class=""conf"" style=""height:25px; width:154px; margin-top:2px; margin-left:15px;""></div>
            <div id=""conf2"" class=""conf"" style=""height:25px; width:154px; margin-top:2px; margin-left:169px;""></div>
            <div id=""conf3"" class=""conf"" style=""height:25px; width:154px; margin-top:2px; margin-left:323px;""></div>
            <div id=""conf4"" class=""conf"" style=""height:25px; width:154px; margin-top:2px; margin-left:477px;""></div>
          <div id=""conf5"" class=""conf"" style=""height:25px; width:154px; margin-top:2px; margin-left:631px;""></div>","5","","","","","","","","","","","","50",""
"","","","","","","","","","","","Summary Trial","265","2.1.0","343005","65456ebc819cdd5600552571","Prolific","0","","640","","36","2","","e","313","383","","","","false","4.250000000000001","1","","Test","70","","5"
"","","","","","","","","","","","html-keyboard-response","267","2.1.0","344011","65456ebc819cdd5600552571","Prolific","0","","null","","37","2","<p style=""font-size: 70pt;"">+</p>","null","","","","","","","","","","","","",""
"","","","","","","","","","","","Stimulus Presentation","268","2.1.0","344323","65456ebc819cdd5600552571","Prolific","0","","null","","37","2","","null","313","383","313","70","e","false","4.250000000000001","","","","","",""
"","","","","","","","","","","","Stimulus Response","269","2.1.0","346226","65456ebc819cdd5600552571","Prolific","0","","1903","","37","2","","w","","","","","","","","0","","","","",""
"","","","","","","","","","","","Feedback","270","2.1.0","346730","65456ebc819cdd5600552571","Prolific","0","","null","","37","2","","null","","","","","","","","","","","","",""
"","","","","","","","","","","","Confidence Rating","271","2.1.0","348950","65456ebc819cdd5600552571","Prolific","0","","2219","","37","2","<h3>Rate your confidence:</h3>
            <div id=""conf1"" class=""conf"" style=""height:25px; width:154px; margin-top:2px; margin-left:15px;""></div>
            <div id=""conf2"" class=""conf"" style=""height:25px; width:154px; margin-top:2px; margin-left:169px;""></div>
            <div id=""conf3"" class=""conf"" style=""height:25px; width:154px; margin-top:2px; margin-left:323px;""></div>
            <div id=""conf4"" class=""conf"" style=""height:25px; width:154px; margin-top:2px; margin-left:477px;""></div>
          <div id=""conf5"" class=""conf"" style=""height:25px; width:154px; margin-top:2px; margin-left:631px;""></div>","5","","","","","","","","","","","","50",""
"","","","","","","","","","","","Summary Trial","272","2.1.0","348951","65456ebc819cdd5600552571","Prolific","0","","1903","","37","2","","w","313","383","","","","false","4.250000000000001","0","","Test","70","","5"
"","","","","","","","","","","","html-keyboard-response","274","2.1.0","349956","65456ebc819cdd5600552571","Prolific","0","","null","","38","2","<p style=""font-size: 70pt;"">+</p>","null","","","","","","","","","","","","",""
"","","","","","","","","","","","Stimulus Presentation","275","2.1.0","350271","65456ebc819cdd5600552571","Prolific","0","","null","","38","2","","null","390","313","313","77","w","true","4.3500000000000005","","","","","",""
"","","","","","","","","","","","Stimulus Response","276","2.1.0","351017","65456ebc819cdd5600552571","Prolific","0","","746","","38","2","","e","","","","","","","","0","","","","",""
"","","","","","","","","","","","Feedback","277","2.1.0","351518","65456ebc819cdd5600552571","Prolific","0","","null","","38","2","","null","","","","","","","","","","","","",""
"","","","","","","","","","","","Confidence Rating","278","2.1.0","354715","65456ebc819cdd5600552571","Prolific","0","","3196","","38","2","<h3>Rate your confidence:</h3>
            <div id=""conf1"" class=""conf"" style=""height:25px; width:154px; margin-top:2px; margin-left:15px;""></div>
            <div id=""conf2"" class=""conf"" style=""height:25px; width:154px; margin-top:2px; margin-left:169px;""></div>
            <div id=""conf3"" class=""conf"" style=""height:25px; width:154px; margin-top:2px; margin-left:323px;""></div>
            <div id=""conf4"" class=""conf"" style=""height:25px; width:154px; margin-top:2px; margin-left:477px;""></div>
          <div id=""conf5"" class=""conf"" style=""height:25px; width:154px; margin-top:2px; margin-left:631px;""></div>","3","","","","","","","","","","","","50",""
"","","","","","","","","","","","Summary Trial","279","2.1.0","354715","65456ebc819cdd5600552571","Prolific","0","","746","","38","2","","e","390","313","","","","true","4.3500000000000005","0","","Test","77","","3"
"","","","","","","","","","","","html-keyboard-response","281","2.1.0","355718","65456ebc819cdd5600552571","Prolific","0","","null","","39","2","<p style=""font-size: 70pt;"">+</p>","null","","","","","","","","","","","","",""
"","","","","","","","","","","","Stimulus Presentation","282","2.1.0","356035","65456ebc819cdd5600552571","Prolific","0","","null","","39","2","","null","399","313","313","86","w","true","4.45","","","","","",""
"","","","","","","","","","","","Stimulus Response","283","2.1.0","357119","65456ebc819cdd5600552571","Prolific","0","","1083","","39","2","","w","","","","","","","","1","","","","",""
"","","","","","","","","","","","Feedback","284","2.1.0","357620","65456ebc819cdd5600552571","Prolific","0","","null","","39","2","","null","","","","","","","","","","","","",""
"","","","","","","","","","","","Confidence Rating","285","2.1.0","359925","65456ebc819cdd5600552571","Prolific","0","","2304","","39","2","<h3>Rate your confidence:</h3>
            <div id=""conf1"" class=""conf"" style=""height:25px; width:154px; margin-top:2px; margin-left:15px;""></div>
            <div id=""conf2"" class=""conf"" style=""height:25px; width:154px; margin-top:2px; margin-left:169px;""></div>
            <div id=""conf3"" class=""conf"" style=""height:25px; width:154px; margin-top:2px; margin-left:323px;""></div>
            <div id=""conf4"" class=""conf"" style=""height:25px; width:154px; margin-top:2px; margin-left:477px;""></div>
          <div id=""conf5"" class=""conf"" style=""height:25px; width:154px; margin-top:2px; margin-left:631px;""></div>","5","","","","","","","","","","","","50",""
"","","","","","","","","","","","Summary Trial","286","2.1.0","359925","65456ebc819cdd5600552571","Prolific","0","","1083","","39","2","","w","399","313","","","","true","4.45","1","","Test","86","","5"
"","","","","","","","","","","","html-keyboard-response","288","2.1.0","360935","65456ebc819cdd5600552571","Prolific","0","","null","","40","2","<p style=""font-size: 70pt;"">+</p>","null","","","","","","","","","","","","",""
"","","","","","","","","","","","Stimulus Presentation","289","2.1.0","361251","65456ebc819cdd5600552571","Prolific","0","","null","","40","2","","null","313","399","313","86","e","false","4.45","","","","","",""
"","","","","","","","","","","","Stimulus Response","290","2.1.0","362161","65456ebc819cdd5600552571","Prolific","0","","909","","40","2","","e","","","","","","","","1","","","","",""
"","","","","","","","","","","","Feedback","291","2.1.0","362663","65456ebc819cdd5600552571","Prolific","0","","null","","40","2","","null","","","","","","","","","","","","",""
"","","","","","","","","","","","Confidence Rating","292","2.1.0","364226","65456ebc819cdd5600552571","Prolific","0","","1562","","40","2","<h3>Rate your confidence:</h3>
            <div id=""conf1"" class=""conf"" style=""height:25px; width:154px; margin-top:2px; margin-left:15px;""></div>
            <div id=""conf2"" class=""conf"" style=""height:25px; width:154px; margin-top:2px; margin-left:169px;""></div>
            <div id=""conf3"" class=""conf"" style=""height:25px; width:154px; margin-top:2px; margin-left:323px;""></div>
            <div id=""conf4"" class=""conf"" style=""height:25px; width:154px; margin-top:2px; margin-left:477px;""></div>
          <div id=""conf5"" class=""conf"" style=""height:25px; width:154px; margin-top:2px; margin-left:631px;""></div>","5","","","","","","","","","","","","50",""
"","","","","","","","","","","","Summary Trial","293","2.1.0","364227","65456ebc819cdd5600552571","Prolific","0","","909","","40","2","","e","313","399","","","","false","4.45","1","","Test","86","","5"
"","","","","","","","","","","","html-keyboard-response","295","2.1.0","365228","65456ebc819cdd5600552571","Prolific","0","","null","","41","2","<p style=""font-size: 70pt;"">+</p>","null","","","","","","","","","","","","",""
"","","","","","","","","","","","Stimulus Presentation","296","2.1.0","365540","65456ebc819cdd5600552571","Prolific","0","","null","","41","2","","null","390","313","313","77","w","true","4.3500000000000005","","","","","",""
"","","","","","","","","","","","Stimulus Response","297","2.1.0","367573","65456ebc819cdd5600552571","Prolific","0","","2033","","41","2","","w","","","","","","","","1","","","","",""
"","","","","","","","","","","","Feedback","298","2.1.0","368079","65456ebc819cdd5600552571","Prolific","0","","null","","41","2","","null","","","","","","","","","","","","",""
"","","","","","","","","","","","Confidence Rating","299","2.1.0","374972","65456ebc819cdd5600552571","Prolific","0","","6892","","41","2","<h3>Rate your confidence:</h3>
            <div id=""conf1"" class=""conf"" style=""height:25px; width:154px; margin-top:2px; margin-left:15px;""></div>
            <div id=""conf2"" class=""conf"" style=""height:25px; width:154px; margin-top:2px; margin-left:169px;""></div>
            <div id=""conf3"" class=""conf"" style=""height:25px; width:154px; margin-top:2px; margin-left:323px;""></div>
            <div id=""conf4"" class=""conf"" style=""height:25px; width:154px; margin-top:2px; margin-left:477px;""></div>
          <div id=""conf5"" class=""conf"" style=""height:25px; width:154px; margin-top:2px; margin-left:631px;""></div>","3","","","","","","","","","","","","50",""
"","","","","","","","","","","","Summary Trial","300","2.1.0","374972","65456ebc819cdd5600552571","Prolific","0","","2033","","41","2","","w","390","313","","","","true","4.3500000000000005","1","","Test","77","","3"
"","","","","","","","","","","","html-keyboard-response","302","2.1.0","375979","65456ebc819cdd5600552571","Prolific","0","","null","","42","2","<p style=""font-size: 70pt;"">+</p>","null","","","","","","","","","","","","",""
"","","","","","","","","","","","Stimulus Presentation","303","2.1.0","376292","65456ebc819cdd5600552571","Prolific","0","","null","","42","2","","null","313","390","313","77","e","false","4.3500000000000005","","","","","",""
"","","","","","","","","","","","Stimulus Response","304","2.1.0","376928","65456ebc819cdd5600552571","Prolific","0","","635","","42","2","","e","","","","","","","","1","","","","",""
"","","","","","","","","","","","Feedback","305","2.1.0","377444","65456ebc819cdd5600552571","Prolific","0","","null","","42","2","","null","","","","","","","","","","","","",""
"","","","","","","","","","","","Confidence Rating","306","2.1.0","379152","65456ebc819cdd5600552571","Prolific","0","","1707","","42","2","<h3>Rate your confidence:</h3>
            <div id=""conf1"" class=""conf"" style=""height:25px; width:154px; margin-top:2px; margin-left:15px;""></div>
            <div id=""conf2"" class=""conf"" style=""height:25px; width:154px; margin-top:2px; margin-left:169px;""></div>
            <div id=""conf3"" class=""conf"" style=""height:25px; width:154px; margin-top:2px; margin-left:323px;""></div>
            <div id=""conf4"" class=""conf"" style=""height:25px; width:154px; margin-top:2px; margin-left:477px;""></div>
          <div id=""conf5"" class=""conf"" style=""height:25px; width:154px; margin-top:2px; margin-left:631px;""></div>","5","","","","","","","","","","","","50",""
"","","","","","","","","","","","Summary Trial","307","2.1.0","379153","65456ebc819cdd5600552571","Prolific","0","","635","","42","2","","e","313","390","","","","false","4.3500000000000005","1","","Test","77","","5"
"","","","","","","","","","","","html-keyboard-response","309","2.1.0","380155","65456ebc819cdd5600552571","Prolific","0","","null","","43","2","<p style=""font-size: 70pt;"">+</p>","null","","","","","","","","","","","","",""
"","","","","","","","","","","","Stimulus Presentation","310","2.1.0","380465","65456ebc819cdd5600552571","Prolific","0","","null","","43","2","","null","383","313","313","70","w","true","4.250000000000001","","","","","",""
"","","","","","","","","","","","Stimulus Response","311","2.1.0","381191","65456ebc819cdd5600552571","Prolific","0","","725","","43","2","","w","","","","","","","","1","","","","",""
"","","","","","","","","","","","Feedback","312","2.1.0","381700","65456ebc819cdd5600552571","Prolific","0","","null","","43","2","","null","","","","","","","","","","","","",""
"","","","","","","","","","","","Confidence Rating","313","2.1.0","383515","65456ebc819cdd5600552571","Prolific","0","","1813","","43","2","<h3>Rate your confidence:</h3>
            <div id=""conf1"" class=""conf"" style=""height:25px; width:154px; margin-top:2px; margin-left:15px;""></div>
            <div id=""conf2"" class=""conf"" style=""height:25px; width:154px; margin-top:2px; margin-left:169px;""></div>
            <div id=""conf3"" class=""conf"" style=""height:25px; width:154px; margin-top:2px; margin-left:323px;""></div>
            <div id=""conf4"" class=""conf"" style=""height:25px; width:154px; margin-top:2px; margin-left:477px;""></div>
          <div id=""conf5"" class=""conf"" style=""height:25px; width:154px; margin-top:2px; margin-left:631px;""></div>","5","","","","","","","","","","","","50",""
"","","","","","","","","","","","Summary Trial","314","2.1.0","383515","65456ebc819cdd5600552571","Prolific","0","","725","","43","2","","w","383","313","","","","true","4.250000000000001","1","","Test","70","","5"
"","","","","","","","","","","","html-keyboard-response","316","2.1.0","384529","65456ebc819cdd5600552571","Prolific","0","","null","","44","2","<p style=""font-size: 70pt;"">+</p>","null","","","","","","","","","","","","",""
"","","","","","","","","","","","Stimulus Presentation","317","2.1.0","384843","65456ebc819cdd5600552571","Prolific","0","","null","","44","2","","null","313","383","313","70","e","false","4.250000000000001","","","","","",""
"","","","","","","","","","","","Stimulus Response","318","2.1.0","385313","65456ebc819cdd5600552571","Prolific","0","","469","","44","2","","e","","","","","","","","1","","","","",""
"","","","","","","","","","","","Feedback","319","2.1.0","385817","65456ebc819cdd5600552571","Prolific","0","","null","","44","2","","null","","","","","","","","","","","","",""
"","","","","","","","","","","","Confidence Rating","320","2.1.0","387737","65456ebc819cdd5600552571","Prolific","0","","1919","","44","2","<h3>Rate your confidence:</h3>
            <div id=""conf1"" class=""conf"" style=""height:25px; width:154px; margin-top:2px; margin-left:15px;""></div>
            <div id=""conf2"" class=""conf"" style=""height:25px; width:154px; margin-top:2px; margin-left:169px;""></div>
            <div id=""conf3"" class=""conf"" style=""height:25px; width:154px; margin-top:2px; margin-left:323px;""></div>
            <div id=""conf4"" class=""conf"" style=""height:25px; width:154px; margin-top:2px; margin-left:477px;""></div>
          <div id=""conf5"" class=""conf"" style=""height:25px; width:154px; margin-top:2px; margin-left:631px;""></div>","5","","","","","","","","","","","","50",""
"","","","","","","","","","","","Summary Trial","321","2.1.0","387737","65456ebc819cdd5600552571","Prolific","0","","469","","44","2","","e","313","383","","","","false","4.250000000000001","1","","Test","70","","5"
"","","","","","","","","","","","html-keyboard-response","323","2.1.0","388752","65456ebc819cdd5600552571","Prolific","0","","null","","45","2","<p style=""font-size: 70pt;"">+</p>","null","","","","","","","","","","","","",""
"","","","","","","","","","","","Stimulus Presentation","324","2.1.0","389068","65456ebc819cdd5600552571","Prolific","0","","null","","45","2","","null","313","376","313","63","e","false","4.150000000000001","","","","","",""
"","","","","","","","","","","","Stimulus Response","325","2.1.0","389512","65456ebc819cdd5600552571","Prolific","0","","444","","45","2","","e","","","","","","","","1","","","","",""
"","","","","","","","","","","","Feedback","326","2.1.0","390017","65456ebc819cdd5600552571","Prolific","0","","null","","45","2","","null","","","","","","","","","","","","",""
"","","","","","","","","","","","Confidence Rating","327","2.1.0","391580","65456ebc819cdd5600552571","Prolific","0","","1561","","45","2","<h3>Rate your confidence:</h3>
            <div id=""conf1"" class=""conf"" style=""height:25px; width:154px; margin-top:2px; margin-left:15px;""></div>
            <div id=""conf2"" class=""conf"" style=""height:25px; width:154px; margin-top:2px; margin-left:169px;""></div>
            <div id=""conf3"" class=""conf"" style=""height:25px; width:154px; margin-top:2px; margin-left:323px;""></div>
            <div id=""conf4"" class=""conf"" style=""height:25px; width:154px; margin-top:2px; margin-left:477px;""></div>
          <div id=""conf5"" class=""conf"" style=""height:25px; width:154px; margin-top:2px; margin-left:631px;""></div>","5","","","","","","","","","","","","50",""
"","","","","","","","","","","","Summary Trial","328","2.1.0","391581","65456ebc819cdd5600552571","Prolific","0","","444","","45","2","","e","313","376","","","","false","4.150000000000001","1","","Test","63","","5"
"","","","","","","","","","","","html-keyboard-response","330","2.1.0","392588","65456ebc819cdd5600552571","Prolific","0","","null","","46","2","<p style=""font-size: 70pt;"">+</p>","null","","","","","","","","","","","","",""
"","","","","","","","","","","","Stimulus Presentation","331","2.1.0","392900","65456ebc819cdd5600552571","Prolific","0","","null","","46","2","","null","376","313","313","63","w","true","4.150000000000001","","","","","",""
"","","","","","","","","","","","Stimulus Response","332","2.1.0","393406","65456ebc819cdd5600552571","Prolific","0","","505","","46","2","","w","","","","","","","","1","","","","",""
"","","","","","","","","","","","Feedback","333","2.1.0","393911","65456ebc819cdd5600552571","Prolific","0","","null","","46","2","","null","","","","","","","","","","","","",""
"","","","","","","","","","","","Confidence Rating","334","2.1.0","395389","65456ebc819cdd5600552571","Prolific","0","","1477","","46","2","<h3>Rate your confidence:</h3>
            <div id=""conf1"" class=""conf"" style=""height:25px; width:154px; margin-top:2px; margin-left:15px;""></div>
            <div id=""conf2"" class=""conf"" style=""height:25px; width:154px; margin-top:2px; margin-left:169px;""></div>
            <div id=""conf3"" class=""conf"" style=""height:25px; width:154px; margin-top:2px; margin-left:323px;""></div>
            <div id=""conf4"" class=""conf"" style=""height:25px; width:154px; margin-top:2px; margin-left:477px;""></div>
          <div id=""conf5"" class=""conf"" style=""height:25px; width:154px; margin-top:2px; margin-left:631px;""></div>","5","","","","","","","","","","","","50",""
"","","","","","","","","","","","Summary Trial","335","2.1.0","395389","65456ebc819cdd5600552571","Prolific","0","","505","","46","2","","w","376","313","","","","true","4.150000000000001","1","","Test","63","","5"
"","","","","","","","","","","","html-keyboard-response","337","2.1.0","396401","65456ebc819cdd5600552571","Prolific","0","","null","","47","2","<p style=""font-size: 70pt;"">+</p>","null","","","","","","","","","","","","",""
"","","","","","","","","","","","Stimulus Presentation","338","2.1.0","396713","65456ebc819cdd5600552571","Prolific","0","","null","","47","2","","null","370","313","313","57","w","true","4.050000000000002","","","","","",""
"","","","","","","","","","","","Stimulus Response","339","2.1.0","397452","65456ebc819cdd5600552571","Prolific","0","","738","","47","2","","w","","","","","","","","1","","","","",""
"","","","","","","","","","","","Feedback","340","2.1.0","397965","65456ebc819cdd5600552571","Prolific","0","","null","","47","2","","null","","","","","","","","","","","","",""
"","","","","","","","","","","","Confidence Rating","341","2.1.0","399415","65456ebc819cdd5600552571","Prolific","0","","1450","","47","2","<h3>Rate your confidence:</h3>
            <div id=""conf1"" class=""conf"" style=""height:25px; width:154px; margin-top:2px; margin-left:15px;""></div>
            <div id=""conf2"" class=""conf"" style=""height:25px; width:154px; margin-top:2px; margin-left:169px;""></div>
            <div id=""conf3"" class=""conf"" style=""height:25px; width:154px; margin-top:2px; margin-left:323px;""></div>
            <div id=""conf4"" class=""conf"" style=""height:25px; width:154px; margin-top:2px; margin-left:477px;""></div>
          <div id=""conf5"" class=""conf"" style=""height:25px; width:154px; margin-top:2px; margin-left:631px;""></div>","5","","","","","","","","","","","","50",""
"","","","","","","","","","","","Summary Trial","342","2.1.0","399416","65456ebc819cdd5600552571","Prolific","0","","738","","47","2","","w","370","313","","","","true","4.050000000000002","1","","Test","57","","5"
"","","","","","","","","","","","html-keyboard-response","344","2.1.0","400424","65456ebc819cdd5600552571","Prolific","0","","null","","48","2","<p style=""font-size: 70pt;"">+</p>","null","","","","","","","","","","","","",""
"","","","","","","","","","","","Stimulus Presentation","345","2.1.0","400739","65456ebc819cdd5600552571","Prolific","0","","null","","48","2","","null","313","370","313","57","e","false","4.050000000000002","","","","","",""
"","","","","","","","","","","","Stimulus Response","346","2.1.0","401090","65456ebc819cdd5600552571","Prolific","0","","351","","48","2","","e","","","","","","","","1","","","","",""
"","","","","","","","","","","","Feedback","347","2.1.0","401595","65456ebc819cdd5600552571","Prolific","0","","null","","48","2","","null","","","","","","","","","","","","",""
"","","","","","","","","","","","Confidence Rating","348","2.1.0","404911","65456ebc819cdd5600552571","Prolific","0","","3314","","48","2","<h3>Rate your confidence:</h3>
            <div id=""conf1"" class=""conf"" style=""height:25px; width:154px; margin-top:2px; margin-left:15px;""></div>
            <div id=""conf2"" class=""conf"" style=""height:25px; width:154px; margin-top:2px; margin-left:169px;""></div>
            <div id=""conf3"" class=""conf"" style=""height:25px; width:154px; margin-top:2px; margin-left:323px;""></div>
            <div id=""conf4"" class=""conf"" style=""height:25px; width:154px; margin-top:2px; margin-left:477px;""></div>
          <div id=""conf5"" class=""conf"" style=""height:25px; width:154px; margin-top:2px; margin-left:631px;""></div>","3","","","","","","","","","","","","50",""
"","","","","","","","","","","","Summary Trial","349","2.1.0","404911","65456ebc819cdd5600552571","Prolific","0","","351","","48","2","","e","313","370","","","","false","4.050000000000002","1","","Test","57","","3"
"","","","","","","","","","","","html-keyboard-response","351","2.1.0","405927","65456ebc819cdd5600552571","Prolific","0","","null","","49","2","<p style=""font-size: 70pt;"">+</p>","null","","","","","","","","","","","","",""
"","","","","","","","","","","","Stimulus Presentation","352","2.1.0","406237","65456ebc819cdd5600552571","Prolific","0","","null","","49","2","","null","365","313","313","52","w","true","3.9500000000000015","","","","","",""
"","","","","","","","","","","","Stimulus Response","353","2.1.0","565982","65456ebc819cdd5600552571","Prolific","0","","159744","","49","2","","w","","","","","","","","1","","","","",""
"","","","","","","","","","","","Feedback","354","2.1.0","566497","65456ebc819cdd5600552571","Prolific","0","","null","","49","2","","null","","","","","","","","","","","","",""
"","","","","","","","","","","","Confidence Rating","355","2.1.0","571608","65456ebc819cdd5600552571","Prolific","0","","5110","","49","2","<h3>Rate your confidence:</h3>
            <div id=""conf1"" class=""conf"" style=""height:25px; width:154px; margin-top:2px; margin-left:15px;""></div>
            <div id=""conf2"" class=""conf"" style=""height:25px; width:154px; margin-top:2px; margin-left:169px;""></div>
            <div id=""conf3"" class=""conf"" style=""height:25px; width:154px; margin-top:2px; margin-left:323px;""></div>
            <div id=""conf4"" class=""conf"" style=""height:25px; width:154px; margin-top:2px; margin-left:477px;""></div>
          <div id=""conf5"" class=""conf"" style=""height:25px; width:154px; margin-top:2px; margin-left:631px;""></div>","3","","","","","","","","","","","","50",""
"","","","","","","","","","","","Summary Trial","356","2.1.0","571609","65456ebc819cdd5600552571","Prolific","0","","159744","","49","2","","w","365","313","","","","true","3.9500000000000015","1","","Test","52","","3"
"","","","","","","","","","","","html-keyboard-response","358","2.1.0","572614","65456ebc819cdd5600552571","Prolific","0","","null","","50","2","<p style=""font-size: 70pt;"">+</p>","null","","","","","","","","","","","","",""
"","","","","","","","","","","","Stimulus Presentation","359","2.1.0","572928","65456ebc819cdd5600552571","Prolific","0","","null","","50","2","","null","313","365","313","52","e","false","3.9500000000000015","","","","","",""
"","","","","","","","","","","","Stimulus Response","360","2.1.0","573706","65456ebc819cdd5600552571","Prolific","0","","778","","50","2","","e","","","","","","","","1","","","","",""
"","","","","","","","","","","","Feedback","361","2.1.0","574207","65456ebc819cdd5600552571","Prolific","0","","null","","50","2","","null","","","","","","","","","","","","",""
"","","","","","","","","","","","Confidence Rating","362","2.1.0","576173","65456ebc819cdd5600552571","Prolific","0","","1965","","50","2","<h3>Rate your confidence:</h3>
            <div id=""conf1"" class=""conf"" style=""height:25px; width:154px; margin-top:2px; margin-left:15px;""></div>
            <div id=""conf2"" class=""conf"" style=""height:25px; width:154px; margin-top:2px; margin-left:169px;""></div>
            <div id=""conf3"" class=""conf"" style=""height:25px; width:154px; margin-top:2px; margin-left:323px;""></div>
            <div id=""conf4"" class=""conf"" style=""height:25px; width:154px; margin-top:2px; margin-left:477px;""></div>
          <div id=""conf5"" class=""conf"" style=""height:25px; width:154px; margin-top:2px; margin-left:631px;""></div>","5","","","","","","","","","","","","50",""
"","","","","","","","","","","","Summary Trial","363","2.1.0","576173","65456ebc819cdd5600552571","Prolific","0","","778","","50","2","","e","313","365","","","","false","3.9500000000000015","1","","Test","52","","5"
"","","","","","","","","","","","html-keyboard-response","365","2.1.0","577178","65456ebc819cdd5600552571","Prolific","0","","null","","51","2","<p style=""font-size: 70pt;"">+</p>","null","","","","","","","","","","","","",""
"","","","","","","","","","","","Stimulus Presentation","366","2.1.0","577489","65456ebc819cdd5600552571","Prolific","0","","null","","51","2","","null","313","360","313","47","e","false","3.8500000000000014","","","","","",""
"","","","","","","","","","","","Stimulus Response","367","2.1.0","578874","65456ebc819cdd5600552571","Prolific","0","","1384","","51","2","","e","","","","","","","","1","","","","",""
"","","","","","","","","","","","Feedback","368","2.1.0","579377","65456ebc819cdd5600552571","Prolific","0","","null","","51","2","","null","","","","","","","","","","","","",""
"","","","","","","","","","","","Confidence Rating","369","2.1.0","582129","65456ebc819cdd5600552571","Prolific","0","","2751","","51","2","<h3>Rate your confidence:</h3>
            <div id=""conf1"" class=""conf"" style=""height:25px; width:154px; margin-top:2px; margin-left:15px;""></div>
            <div id=""conf2"" class=""conf"" style=""height:25px; width:154px; margin-top:2px; margin-left:169px;""></div>
            <div id=""conf3"" class=""conf"" style=""height:25px; width:154px; margin-top:2px; margin-left:323px;""></div>
            <div id=""conf4"" class=""conf"" style=""height:25px; width:154px; margin-top:2px; margin-left:477px;""></div>
          <div id=""conf5"" class=""conf"" style=""height:25px; width:154px; margin-top:2px; margin-left:631px;""></div>","4","","","","","","","","","","","","50",""
"","","","","","","","","","","","Summary Trial","370","2.1.0","582130","65456ebc819cdd5600552571","Prolific","0","","1384","","51","2","","e","313","360","","","","false","3.8500000000000014","1","","Test","47","","4"
"","","","","","","","","","","","html-keyboard-response","372","2.1.0","583144","65456ebc819cdd5600552571","Prolific","0","","null","","52","2","<p style=""font-size: 70pt;"">+</p>","null","","","","","","","","","","","","",""
"","","","","","","","","","","","Stimulus Presentation","373","2.1.0","583455","65456ebc819cdd5600552571","Prolific","0","","null","","52","2","","null","360","313","313","47","w","true","3.8500000000000014","","","","","",""
"","","","","","","","","","","","Stimulus Response","374","2.1.0","584174","65456ebc819cdd5600552571","Prolific","0","","719","","52","2","","w","","","","","","","","1","","","","",""
"","","","","","","","","","","","Feedback","375","2.1.0","584684","65456ebc819cdd5600552571","Prolific","0","","null","","52","2","","null","","","","","","","","","","","","",""
"","","","","","","","","","","","Confidence Rating","376","2.1.0","586482","65456ebc819cdd5600552571","Prolific","0","","1798","","52","2","<h3>Rate your confidence:</h3>
            <div id=""conf1"" class=""conf"" style=""height:25px; width:154px; margin-top:2px; margin-left:15px;""></div>
            <div id=""conf2"" class=""conf"" style=""height:25px; width:154px; margin-top:2px; margin-left:169px;""></div>
            <div id=""conf3"" class=""conf"" style=""height:25px; width:154px; margin-top:2px; margin-left:323px;""></div>
            <div id=""conf4"" class=""conf"" style=""height:25px; width:154px; margin-top:2px; margin-left:477px;""></div>
          <div id=""conf5"" class=""conf"" style=""height:25px; width:154px; margin-top:2px; margin-left:631px;""></div>","5","","","","","","","","","","","","50",""
"","","","","","","","","","","","Summary Trial","377","2.1.0","586482","65456ebc819cdd5600552571","Prolific","0","","719","","52","2","","w","360","313","","","","true","3.8500000000000014","1","","Test","47","","5"
"","","","","","","","","","","","html-keyboard-response","379","2.1.0","587495","65456ebc819cdd5600552571","Prolific","0","","null","","53","2","<p style=""font-size: 70pt;"">+</p>","null","","","","","","","","","","","","",""
"","","","","","","","","","","","Stimulus Presentation","380","2.1.0","587811","65456ebc819cdd5600552571","Prolific","0","","null","","53","2","","null","313","356","313","43","e","false","3.7500000000000013","","","","","",""
"","","","","","","","","","","","Stimulus Response","381","2.1.0","588436","65456ebc819cdd5600552571","Prolific","0","","625","","53","2","","e","","","","","","","","1","","","","",""
"","","","","","","","","","","","Feedback","382","2.1.0","588938","65456ebc819cdd5600552571","Prolific","0","","null","","53","2","","null","","","","","","","","","","","","",""
"","","","","","","","","","","","Confidence Rating","383","2.1.0","590394","65456ebc819cdd5600552571","Prolific","0","","1455","","53","2","<h3>Rate your confidence:</h3>
            <div id=""conf1"" class=""conf"" style=""height:25px; width:154px; margin-top:2px; margin-left:15px;""></div>
            <div id=""conf2"" class=""conf"" style=""height:25px; width:154px; margin-top:2px; margin-left:169px;""></div>
            <div id=""conf3"" class=""conf"" style=""height:25px; width:154px; margin-top:2px; margin-left:323px;""></div>
            <div id=""conf4"" class=""conf"" style=""height:25px; width:154px; margin-top:2px; margin-left:477px;""></div>
          <div id=""conf5"" class=""conf"" style=""height:25px; width:154px; margin-top:2px; margin-left:631px;""></div>","6","","","","","","","","","","","","50",""
"","","","","","","","","","","","Summary Trial","384","2.1.0","590394","65456ebc819cdd5600552571","Prolific","0","","625","","53","2","","e","313","356","","","","false","3.7500000000000013","1","","Test","43","","6"
"","","","","","","","","","","","html-keyboard-response","386","2.1.0","591409","65456ebc819cdd5600552571","Prolific","0","","null","","54","2","<p style=""font-size: 70pt;"">+</p>","null","","","","","","","","","","","","",""
"","","","","","","","","","","","Stimulus Presentation","387","2.1.0","591721","65456ebc819cdd5600552571","Prolific","0","","null","","54","2","","null","356","313","313","43","w","true","3.7500000000000013","","","","","",""
"","","","","","","","","","","","Stimulus Response","388","2.1.0","592449","65456ebc819cdd5600552571","Prolific","0","","727","","54","2","","w","","","","","","","","1","","","","",""
"","","","","","","","","","","","Feedback","389","2.1.0","592956","65456ebc819cdd5600552571","Prolific","0","","null","","54","2","","null","","","","","","","","","","","","",""
"","","","","","","","","","","","Confidence Rating","390","2.1.0","594378","65456ebc819cdd5600552571","Prolific","0","","1421","","54","2","<h3>Rate your confidence:</h3>
            <div id=""conf1"" class=""conf"" style=""height:25px; width:154px; margin-top:2px; margin-left:15px;""></div>
            <div id=""conf2"" class=""conf"" style=""height:25px; width:154px; margin-top:2px; margin-left:169px;""></div>
            <div id=""conf3"" class=""conf"" style=""height:25px; width:154px; margin-top:2px; margin-left:323px;""></div>
            <div id=""conf4"" class=""conf"" style=""height:25px; width:154px; margin-top:2px; margin-left:477px;""></div>
          <div id=""conf5"" class=""conf"" style=""height:25px; width:154px; margin-top:2px; margin-left:631px;""></div>","5","","","","","","","","","","","","50",""
"","","","","","","","","","","","Summary Trial","391","2.1.0","594378","65456ebc819cdd5600552571","Prolific","0","","727","","54","2","","w","356","313","","","","true","3.7500000000000013","1","","Test","43","","5"
"","","","","","","","","","","","html-keyboard-response","393","2.1.0","595382","65456ebc819cdd5600552571","Prolific","0","","null","","55","2","<p style=""font-size: 70pt;"">+</p>","null","","","","","","","","","","","","",""
"","","","","","","","","","","","Stimulus Presentation","394","2.1.0","595684","65456ebc819cdd5600552571","Prolific","0","","null","","55","2","","null","351","313","313","38","w","true","3.6500000000000012","","","","","",""
"","","","","","","","","","","","Stimulus Response","395","2.1.0","596315","65456ebc819cdd5600552571","Prolific","0","","630","","55","2","","e","","","","","","","","0","","","","",""
"","","","","","","","","","","","Feedback","396","2.1.0","596820","65456ebc819cdd5600552571","Prolific","0","","null","","55","2","","null","","","","","","","","","","","","",""
"","","","","","","","","","","","Confidence Rating","397","2.1.0","598172","65456ebc819cdd5600552571","Prolific","0","","1351","","55","2","<h3>Rate your confidence:</h3>
            <div id=""conf1"" class=""conf"" style=""height:25px; width:154px; margin-top:2px; margin-left:15px;""></div>
            <div id=""conf2"" class=""conf"" style=""height:25px; width:154px; margin-top:2px; margin-left:169px;""></div>
            <div id=""conf3"" class=""conf"" style=""height:25px; width:154px; margin-top:2px; margin-left:323px;""></div>
            <div id=""conf4"" class=""conf"" style=""height:25px; width:154px; margin-top:2px; margin-left:477px;""></div>
          <div id=""conf5"" class=""conf"" style=""height:25px; width:154px; margin-top:2px; margin-left:631px;""></div>","5","","","","","","","","","","","","50",""
"","","","","","","","","","","","Summary Trial","398","2.1.0","598173","65456ebc819cdd5600552571","Prolific","0","","630","","55","2","","e","351","313","","","","true","3.6500000000000012","0","","Test","38","","5"
"","","","","","","","","","","","html-keyboard-response","400","2.1.0","599182","65456ebc819cdd5600552571","Prolific","0","","null","","56","2","<p style=""font-size: 70pt;"">+</p>","null","","","","","","","","","","","","",""
"","","","","","","","","","","","Stimulus Presentation","401","2.1.0","599498","65456ebc819cdd5600552571","Prolific","0","","null","","56","2","","null","313","356","313","43","e","false","3.7500000000000013","","","","","",""
"","","","","","","","","","","","Stimulus Response","402","2.1.0","601987","65456ebc819cdd5600552571","Prolific","0","","2489","","56","2","","w","","","","","","","","0","","","","",""
"","","","","","","","","","","","Feedback","403","2.1.0","602488","65456ebc819cdd5600552571","Prolific","0","","null","","56","2","","null","","","","","","","","","","","","",""
"","","","","","","","","","","","Confidence Rating","404","2.1.0","604376","65456ebc819cdd5600552571","Prolific","0","","1887","","56","2","<h3>Rate your confidence:</h3>
            <div id=""conf1"" class=""conf"" style=""height:25px; width:154px; margin-top:2px; margin-left:15px;""></div>
            <div id=""conf2"" class=""conf"" style=""height:25px; width:154px; margin-top:2px; margin-left:169px;""></div>
            <div id=""conf3"" class=""conf"" style=""height:25px; width:154px; margin-top:2px; margin-left:323px;""></div>
            <div id=""conf4"" class=""conf"" style=""height:25px; width:154px; margin-top:2px; margin-left:477px;""></div>
          <div id=""conf5"" class=""conf"" style=""height:25px; width:154px; margin-top:2px; margin-left:631px;""></div>","2","","","","","","","","","","","","50",""
"","","","","","","","","","","","Summary Trial","405","2.1.0","604377","65456ebc819cdd5600552571","Prolific","0","","2489","","56","2","","w","313","356","","","","false","3.7500000000000013","0","","Test","43","","2"
"","","","","","","","","","","","html-keyboard-response","407","2.1.0","605379","65456ebc819cdd5600552571","Prolific","0","","null","","57","2","<p style=""font-size: 70pt;"">+</p>","null","","","","","","","","","","","","",""
"","","","","","","","","","","","Stimulus Presentation","408","2.1.0","605695","65456ebc819cdd5600552571","Prolific","0","","null","","57","2","","null","360","313","313","47","w","true","3.8500000000000014","","","","","",""
"","","","","","","","","","","","Stimulus Response","409","2.1.0","606324","65456ebc819cdd5600552571","Prolific","0","","628","","57","2","","e","","","","","","","","0","","","","",""
"","","","","","","","","","","","Feedback","410","2.1.0","606826","65456ebc819cdd5600552571","Prolific","0","","null","","57","2","","null","","","","","","","","","","","","",""
"","","","","","","","","","","","Confidence Rating","411","2.1.0","608709","65456ebc819cdd5600552571","Prolific","0","","1882","","57","2","<h3>Rate your confidence:</h3>
            <div id=""conf1"" class=""conf"" style=""height:25px; width:154px; margin-top:2px; margin-left:15px;""></div>
            <div id=""conf2"" class=""conf"" style=""height:25px; width:154px; margin-top:2px; margin-left:169px;""></div>
            <div id=""conf3"" class=""conf"" style=""height:25px; width:154px; margin-top:2px; margin-left:323px;""></div>
            <div id=""conf4"" class=""conf"" style=""height:25px; width:154px; margin-top:2px; margin-left:477px;""></div>
          <div id=""conf5"" class=""conf"" style=""height:25px; width:154px; margin-top:2px; margin-left:631px;""></div>","5","","","","","","","","","","","","50",""
"","","","","","","","","","","","Summary Trial","412","2.1.0","608710","65456ebc819cdd5600552571","Prolific","0","","628","","57","2","","e","360","313","","","","true","3.8500000000000014","0","","Test","47","","5"
"","","","","","","","","","","","html-keyboard-response","414","2.1.0","609720","65456ebc819cdd5600552571","Prolific","0","","null","","58","2","<p style=""font-size: 70pt;"">+</p>","null","","","","","","","","","","","","",""
"","","","","","","","","","","","Stimulus Presentation","415","2.1.0","610036","65456ebc819cdd5600552571","Prolific","0","","null","","58","2","","null","313","365","313","52","e","false","3.9500000000000015","","","","","",""
"","","","","","","","","","","","Stimulus Response","416","2.1.0","610682","65456ebc819cdd5600552571","Prolific","0","","645","","58","2","","e","","","","","","","","1","","","","",""
"","","","","","","","","","","","Feedback","417","2.1.0","611184","65456ebc819cdd5600552571","Prolific","0","","null","","58","2","","null","","","","","","","","","","","","",""
"","","","","","","","","","","","Confidence Rating","418","2.1.0","612377","65456ebc819cdd5600552571","Prolific","0","","1193","","58","2","<h3>Rate your confidence:</h3>
            <div id=""conf1"" class=""conf"" style=""height:25px; width:154px; margin-top:2px; margin-left:15px;""></div>
            <div id=""conf2"" class=""conf"" style=""height:25px; width:154px; margin-top:2px; margin-left:169px;""></div>
            <div id=""conf3"" class=""conf"" style=""height:25px; width:154px; margin-top:2px; margin-left:323px;""></div>
            <div id=""conf4"" class=""conf"" style=""height:25px; width:154px; margin-top:2px; margin-left:477px;""></div>
          <div id=""conf5"" class=""conf"" style=""height:25px; width:154px; margin-top:2px; margin-left:631px;""></div>","5","","","","","","","","","","","","50",""
"","","","","","","","","","","","Summary Trial","419","2.1.0","612377","65456ebc819cdd5600552571","Prolific","0","","645","","58","2","","e","313","365","","","","false","3.9500000000000015","1","","Test","52","","5"
"","","","","","","","","","","","html-keyboard-response","421","2.1.0","613384","65456ebc819cdd5600552571","Prolific","0","","null","","59","2","<p style=""font-size: 70pt;"">+</p>","null","","","","","","","","","","","","",""
"","","","","","","","","","","","Stimulus Presentation","422","2.1.0","613699","65456ebc819cdd5600552571","Prolific","0","","null","","59","2","","null","313","365","313","52","e","false","3.9500000000000015","","","","","",""
"","","","","","","","","","","","Stimulus Response","423","2.1.0","614322","65456ebc819cdd5600552571","Prolific","0","","622","","59","2","","e","","","","","","","","1","","","","",""
"","","","","","","","","","","","Feedback","424","2.1.0","614823","65456ebc819cdd5600552571","Prolific","0","","null","","59","2","","null","","","","","","","","","","","","",""
"","","","","","","","","","","","Confidence Rating","425","2.1.0","616445","65456ebc819cdd5600552571","Prolific","0","","1620","","59","2","<h3>Rate your confidence:</h3>
            <div id=""conf1"" class=""conf"" style=""height:25px; width:154px; margin-top:2px; margin-left:15px;""></div>
            <div id=""conf2"" class=""conf"" style=""height:25px; width:154px; margin-top:2px; margin-left:169px;""></div>
            <div id=""conf3"" class=""conf"" style=""height:25px; width:154px; margin-top:2px; margin-left:323px;""></div>
            <div id=""conf4"" class=""conf"" style=""height:25px; width:154px; margin-top:2px; margin-left:477px;""></div>
          <div id=""conf5"" class=""conf"" style=""height:25px; width:154px; margin-top:2px; margin-left:631px;""></div>","5","","","","","","","","","","","","50",""
"","","","","","","","","","","","Summary Trial","426","2.1.0","616445","65456ebc819cdd5600552571","Prolific","0","","622","","59","2","","e","313","365","","","","false","3.9500000000000015","1","","Test","52","","5"
"","","","","","","","","","","","html-keyboard-response","428","2.1.0","617447","65456ebc819cdd5600552571","Prolific","0","","null","","60","2","<p style=""font-size: 70pt;"">+</p>","null","","","","","","","","","","","","",""
"","","","","","","","","","","","Stimulus Presentation","429","2.1.0","617764","65456ebc819cdd5600552571","Prolific","0","","null","","60","2","","null","360","313","313","47","w","true","3.8500000000000014","","","","","",""
"","","","","","","","","","","","Stimulus Response","430","2.1.0","618636","65456ebc819cdd5600552571","Prolific","0","","871","","60","2","","w","","","","","","","","1","","","","",""
"","","","","","","","","","","","Feedback","431","2.1.0","619137","65456ebc819cdd5600552571","Prolific","0","","null","","60","2","","null","","","","","","","","","","","","",""
"","","","","","","","","","","","Confidence Rating","432","2.1.0","620723","65456ebc819cdd5600552571","Prolific","0","","1585","","60","2","<h3>Rate your confidence:</h3>
            <div id=""conf1"" class=""conf"" style=""height:25px; width:154px; margin-top:2px; margin-left:15px;""></div>
            <div id=""conf2"" class=""conf"" style=""height:25px; width:154px; margin-top:2px; margin-left:169px;""></div>
            <div id=""conf3"" class=""conf"" style=""height:25px; width:154px; margin-top:2px; margin-left:323px;""></div>
            <div id=""conf4"" class=""conf"" style=""height:25px; width:154px; margin-top:2px; margin-left:477px;""></div>
          <div id=""conf5"" class=""conf"" style=""height:25px; width:154px; margin-top:2px; margin-left:631px;""></div>","5","","","","","","","","","","","","50",""
"","","","","","","","","","","","Summary Trial","433","2.1.0","620723","65456ebc819cdd5600552571","Prolific","0","","871","","60","2","","w","360","313","","","","true","3.8500000000000014","1","","Test","47","","5"
"","","","","","","","","","","","html-keyboard-response","435","2.1.0","621738","65456ebc819cdd5600552571","Prolific","0","","null","","61","2","<p style=""font-size: 70pt;"">+</p>","null","","","","","","","","","","","","",""
"","","","","","","","","","","","Stimulus Presentation","436","2.1.0","622040","65456ebc819cdd5600552571","Prolific","0","","null","","61","2","","null","360","313","313","47","w","true","3.8500000000000014","","","","","",""
"","","","","","","","","","","","Stimulus Response","437","2.1.0","622715","65456ebc819cdd5600552571","Prolific","0","","674","","61","2","","e","","","","","","","","0","","","","",""
"","","","","","","","","","","","Feedback","438","2.1.0","623220","65456ebc819cdd5600552571","Prolific","0","","null","","61","2","","null","","","","","","","","","","","","",""
"","","","","","","","","","","","Confidence Rating","439","2.1.0","624653","65456ebc819cdd5600552571","Prolific","0","","1433","","61","2","<h3>Rate your confidence:</h3>
            <div id=""conf1"" class=""conf"" style=""height:25px; width:154px; margin-top:2px; margin-left:15px;""></div>
            <div id=""conf2"" class=""conf"" style=""height:25px; width:154px; margin-top:2px; margin-left:169px;""></div>
            <div id=""conf3"" class=""conf"" style=""height:25px; width:154px; margin-top:2px; margin-left:323px;""></div>
            <div id=""conf4"" class=""conf"" style=""height:25px; width:154px; margin-top:2px; margin-left:477px;""></div>
          <div id=""conf5"" class=""conf"" style=""height:25px; width:154px; margin-top:2px; margin-left:631px;""></div>","5","","","","","","","","","","","","50",""
"","","","","","","","","","","","Summary Trial","440","2.1.0","624654","65456ebc819cdd5600552571","Prolific","0","","674","","61","2","","e","360","313","","","","true","3.8500000000000014","0","","Test","47","","5"
"","","","","","","","","","","","html-keyboard-response","442","2.1.0","625664","65456ebc819cdd5600552571","Prolific","0","","null","","62","2","<p style=""font-size: 70pt;"">+</p>","null","","","","","","","","","","","","",""
"","","","","","","","","","","","Stimulus Presentation","443","2.1.0","625981","65456ebc819cdd5600552571","Prolific","0","","null","","62","2","","null","313","365","313","52","e","false","3.9500000000000015","","","","","",""
"","","","","","","","","","","","Stimulus Response","444","2.1.0","657209","65456ebc819cdd5600552571","Prolific","0","","31227","","62","2","","w","","","","","","","","0","","","","",""
