"width","height","webaudio","browser","browser_version","mobile","os","fullscreen","vsync_rate","webcam","microphone","trial_type","trial_index","plugin_version","time_elapsed","participant_id","Source","condition","success","rt","view_history","trialnum","blocknum","stimulus","response","leftDots","rightDots","baseline","increment","correct_key","target_left","current_log","correct","value","phase","dot_difference","slider_start","confidence"
"963","588","true","firefox","128.0.0","false","Mac OS","true","60.54","true","true","browser-check","0","2.1.0","1002","5ea824f580b9ef228f589930","Prolific","1","","","","","","","","","","","","","","","","","","","",""
"","","","","","","","","","","","fullscreen","1","2.1.0","3075","5ea824f580b9ef228f589930","Prolific","1","true","1068","","","","","","","","","","","","","","","","","",""
"","","","","","","","","","","","instructions","2","2.1.0","5507","5ea824f580b9ef228f589930","Prolific","1","","2429","[{""page_index"":0,""viewing_time"":2429}]","","","","","","","","","","","","","","","","",""
"","","","","","","","","","","","instructions","5","2.1.0","16746","5ea824f580b9ef228f589930","Prolific","1","","11235","[{""page_index"":0,""viewing_time"":9850},{""page_index"":1,""viewing_time"":1385}]","","","","","","","","","","","","","","","","",""
"","","","","","","","","","","","html-keyboard-response","7","2.1.0","17754","5ea824f580b9ef228f589930","Prolific","1","","null","","1","1","<p style=""font-size: 70pt;"">+</p>","null","","","","","","","","","","","","",""
"","","","","","","","","","","","Stimulus Presentation","8","2.1.0","18063","5ea824f580b9ef228f589930","Prolific","1","","null","","1","1","","null","383","313","313","70","w","true","4.25","","","","","",""
"","","","","","","","","","","","Stimulus Response","9","2.1.0","18947","5ea824f580b9ef228f589930","Prolific","1","","882","","1","1","","w","","","","","","","","1","","","","",""
"","","","","","","","","","","","Feedback","10","2.1.0","19452","5ea824f580b9ef228f589930","Prolific","1","","null","","1","1","","null","","","","","","","","","","","","",""
"","","","","","","","","","","","Summary Trial","12","2.1.0","19454","5ea824f580b9ef228f589930","Prolific","1","","882","","1","1","","w","383","313","","","","true","4.25","1","","Practice","70","",""
"","","","","","","","","","","","html-keyboard-response","14","2.1.0","20460","5ea824f580b9ef228f589930","Prolific","1","","null","","2","1","<p style=""font-size: 70pt;"">+</p>","null","","","","","","","","","","","","",""
"","","","","","","","","","","","Stimulus Presentation","15","2.1.0","20765","5ea824f580b9ef228f589930","Prolific","1","","null","","2","1","","null","313","383","313","70","e","false","4.25","","","","","",""
"","","","","","","","","","","","Stimulus Response","16","2.1.0","21255","5ea824f580b9ef228f589930","Prolific","1","","487","","2","1","","e","","","","","","","","1","","","","",""
"","","","","","","","","","","","Feedback","17","2.1.0","21761","5ea824f580b9ef228f589930","Prolific","1","","null","","2","1","","null","","","","","","","","","","","","",""
"","","","","","","","","","","","Summary Trial","19","2.1.0","21761","5ea824f580b9ef228f589930","Prolific","1","","487","","2","1","","e","313","383","","","","false","4.25","1","","Practice","70","",""
"","","","","","","","","","","","html-keyboard-response","21","2.1.0","22768","5ea824f580b9ef228f589930","Prolific","1","","null","","3","1","<p style=""font-size: 70pt;"">+</p>","null","","","","","","","","","","","","",""
"","","","","","","","","","","","Stimulus Presentation","22","2.1.0","23075","5ea824f580b9ef228f589930","Prolific","1","","null","","3","1","","null","313","360","313","47","e","false","3.85","","","","","",""
"","","","","","","","","","","","Stimulus Response","23","2.1.0","23523","5ea824f580b9ef228f589930","Prolific","1","","447","","3","1","","e","","","","","","","","1","","","","",""
"","","","","","","","","","","","Feedback","24","2.1.0","24029","5ea824f580b9ef228f589930","Prolific","1","","null","","3","1","","null","","","","","","","","","","","","",""
"","","","","","","","","","","","Summary Trial","26","2.1.0","24030","5ea824f580b9ef228f589930","Prolific","1","","447","","3","1","","e","313","360","","","","false","3.85","1","","Practice","47","",""
"","","","","","","","","","","","html-keyboard-response","28","2.1.0","25037","5ea824f580b9ef228f589930","Prolific","1","","null","","4","1","<p style=""font-size: 70pt;"">+</p>","null","","","","","","","","","","","","",""
"","","","","","","","","","","","Stimulus Presentation","29","2.1.0","25345","5ea824f580b9ef228f589930","Prolific","1","","null","","4","1","","null","360","313","313","47","w","true","3.85","","","","","",""
"","","","","","","","","","","","Stimulus Response","30","2.1.0","25789","5ea824f580b9ef228f589930","Prolific","1","","443","","4","1","","e","","","","","","","","0","","","","",""
"","","","","","","","","","","","Feedback","31","2.1.0","26295","5ea824f580b9ef228f589930","Prolific","1","","null","","4","1","","null","","","","","","","","","","","","",""
"","","","","","","","","","","","Summary Trial","33","2.1.0","26297","5ea824f580b9ef228f589930","Prolific","1","","443","","4","1","","e","360","313","","","","true","3.85","0","","Practice","47","",""
"","","","","","","","","","","","html-keyboard-response","35","2.1.0","27303","5ea824f580b9ef228f589930","Prolific","1","","null","","5","1","<p style=""font-size: 70pt;"">+</p>","null","","","","","","","","","","","","",""
"","","","","","","","","","","","Stimulus Presentation","36","2.1.0","27611","5ea824f580b9ef228f589930","Prolific","1","","null","","5","1","","null","383","313","313","70","w","true","4.25","","","","","",""
"","","","","","","","","","","","Stimulus Response","37","2.1.0","27914","5ea824f580b9ef228f589930","Prolific","1","","301","","5","1","","w","","","","","","","","1","","","","",""
"","","","","","","","","","","","Feedback","38","2.1.0","28420","5ea824f580b9ef228f589930","Prolific","1","","null","","5","1","","null","","","","","","","","","","","","",""
"","","","","","","","","","","","Summary Trial","40","2.1.0","28421","5ea824f580b9ef228f589930","Prolific","1","","301","","5","1","","w","383","313","","","","true","4.25","1","","Practice","70","",""
"","","","","","","","","","","","html-keyboard-response","42","2.1.0","29461","5ea824f580b9ef228f589930","Prolific","1","","null","","6","1","<p style=""font-size: 70pt;"">+</p>","null","","","","","","","","","","","","",""
"","","","","","","","","","","","Stimulus Presentation","43","2.1.0","29768","5ea824f580b9ef228f589930","Prolific","1","","null","","6","1","","null","313","383","313","70","e","false","4.25","","","","","",""
"","","","","","","","","","","","Stimulus Response","44","2.1.0","30200","5ea824f580b9ef228f589930","Prolific","1","","430","","6","1","","e","","","","","","","","1","","","","",""
"","","","","","","","","","","","Feedback","45","2.1.0","30706","5ea824f580b9ef228f589930","Prolific","1","","null","","6","1","","null","","","","","","","","","","","","",""
"","","","","","","","","","","","Summary Trial","47","2.1.0","30708","5ea824f580b9ef228f589930","Prolific","1","","430","","6","1","","e","313","383","","","","false","4.25","1","","Practice","70","",""
"","","","","","","","","","","","html-keyboard-response","49","2.1.0","31768","5ea824f580b9ef228f589930","Prolific","1","","null","","7","1","<p style=""font-size: 70pt;"">+</p>","null","","","","","","","","","","","","",""
"","","","","","","","","","","","Stimulus Presentation","50","2.1.0","32076","5ea824f580b9ef228f589930","Prolific","1","","null","","7","1","","null","313","370","313","57","e","false","4.05","","","","","",""
"","","","","","","","","","","","Stimulus Response","51","2.1.0","32544","5ea824f580b9ef228f589930","Prolific","1","","466","","7","1","","e","","","","","","","","1","","","","",""
"","","","","","","","","","","","Feedback","52","2.1.0","33050","5ea824f580b9ef228f589930","Prolific","1","","null","","7","1","","null","","","","","","","","","","","","",""
"","","","","","","","","","","","Summary Trial","54","2.1.0","33051","5ea824f580b9ef228f589930","Prolific","1","","466","","7","1","","e","313","370","","","","false","4.05","1","","Practice","57","",""
"","","","","","","","","","","","html-keyboard-response","56","2.1.0","34057","5ea824f580b9ef228f589930","Prolific","1","","null","","8","1","<p style=""font-size: 70pt;"">+</p>","null","","","","","","","","","","","","",""
"","","","","","","","","","","","Stimulus Presentation","57","2.1.0","34361","5ea824f580b9ef228f589930","Prolific","1","","null","","8","1","","null","370","313","313","57","w","true","4.05","","","","","",""
"","","","","","","","","","","","Stimulus Response","58","2.1.0","34659","5ea824f580b9ef228f589930","Prolific","1","","296","","8","1","","w","","","","","","","","1","","","","",""
"","","","","","","","","","","","Feedback","59","2.1.0","35165","5ea824f580b9ef228f589930","Prolific","1","","null","","8","1","","null","","","","","","","","","","","","",""
"","","","","","","","","","","","Summary Trial","61","2.1.0","35165","5ea824f580b9ef228f589930","Prolific","1","","296","","8","1","","w","370","313","","","","true","4.05","1","","Practice","57","",""
"","","","","","","","","","","","html-keyboard-response","63","2.1.0","36257","5ea824f580b9ef228f589930","Prolific","1","","null","","9","1","<p style=""font-size: 70pt;"">+</p>","null","","","","","","","","","","","","",""
"","","","","","","","","","","","Stimulus Presentation","64","2.1.0","36563","5ea824f580b9ef228f589930","Prolific","1","","null","","9","1","","null","360","313","313","47","w","true","3.8499999999999996","","","","","",""
"","","","","","","","","","","","Stimulus Response","65","2.1.0","36859","5ea824f580b9ef228f589930","Prolific","1","","295","","9","1","","w","","","","","","","","1","","","","",""
"","","","","","","","","","","","Feedback","66","2.1.0","37366","5ea824f580b9ef228f589930","Prolific","1","","null","","9","1","","null","","","","","","","","","","","","",""
"","","","","","","","","","","","Summary Trial","68","2.1.0","37367","5ea824f580b9ef228f589930","Prolific","1","","295","","9","1","","w","360","313","","","","true","3.8499999999999996","1","","Practice","47","",""
"","","","","","","","","","","","html-keyboard-response","70","2.1.0","38424","5ea824f580b9ef228f589930","Prolific","1","","null","","10","1","<p style=""font-size: 70pt;"">+</p>","null","","","","","","","","","","","","",""
"","","","","","","","","","","","Stimulus Presentation","71","2.1.0","38732","5ea824f580b9ef228f589930","Prolific","1","","null","","10","1","","null","313","360","313","47","e","false","3.8499999999999996","","","","","",""
"","","","","","","","","","","","Stimulus Response","72","2.1.0","39073","5ea824f580b9ef228f589930","Prolific","1","","340","","10","1","","e","","","","","","","","1","","","","",""
"","","","","","","","","","","","Feedback","73","2.1.0","39580","5ea824f580b9ef228f589930","Prolific","1","","null","","10","1","","null","","","","","","","","","","","","",""
"","","","","","","","","","","","Summary Trial","75","2.1.0","39580","5ea824f580b9ef228f589930","Prolific","1","","340","","10","1","","e","313","360","","","","false","3.8499999999999996","1","","Practice","47","",""
"","","","","","","","","","","","html-keyboard-response","77","2.1.0","40586","5ea824f580b9ef228f589930","Prolific","1","","null","","11","1","<p style=""font-size: 70pt;"">+</p>","null","","","","","","","","","","","","",""
"","","","","","","","","","","","Stimulus Presentation","78","2.1.0","40894","5ea824f580b9ef228f589930","Prolific","1","","null","","11","1","","null","313","351","313","38","e","false","3.6499999999999995","","","","","",""
"","","","","","","","","","","","Stimulus Response","79","2.1.0","41221","5ea824f580b9ef228f589930","Prolific","1","","324","","11","1","","e","","","","","","","","1","","","","",""
"","","","","","","","","","","","Feedback","80","2.1.0","41726","5ea824f580b9ef228f589930","Prolific","1","","null","","11","1","","null","","","","","","","","","","","","",""
"","","","","","","","","","","","Summary Trial","82","2.1.0","41727","5ea824f580b9ef228f589930","Prolific","1","","324","","11","1","","e","313","351","","","","false","3.6499999999999995","1","","Practice","38","",""
"","","","","","","","","","","","html-keyboard-response","84","2.1.0","42733","5ea824f580b9ef228f589930","Prolific","1","","null","","12","1","<p style=""font-size: 70pt;"">+</p>","null","","","","","","","","","","","","",""
"","","","","","","","","","","","Stimulus Presentation","85","2.1.0","43058","5ea824f580b9ef228f589930","Prolific","1","","null","","12","1","","null","351","313","313","38","w","true","3.6499999999999995","","","","","",""
"","","","","","","","","","","","Stimulus Response","86","2.1.0","43493","5ea824f580b9ef228f589930","Prolific","1","","434","","12","1","","e","","","","","","","","0","","","","",""
"","","","","","","","","","","","Feedback","87","2.1.0","43999","5ea824f580b9ef228f589930","Prolific","1","","null","","12","1","","null","","","","","","","","","","","","",""
"","","","","","","","","","","","Summary Trial","89","2.1.0","44000","5ea824f580b9ef228f589930","Prolific","1","","434","","12","1","","e","351","313","","","","true","3.6499999999999995","0","","Practice","38","",""
"","","","","","","","","","","","html-keyboard-response","91","2.1.0","45007","5ea824f580b9ef228f589930","Prolific","1","","null","","13","1","<p style=""font-size: 70pt;"">+</p>","null","","","","","","","","","","","","",""
"","","","","","","","","","","","Stimulus Presentation","92","2.1.0","45315","5ea824f580b9ef228f589930","Prolific","1","","null","","13","1","","null","313","356","313","43","e","false","3.7499999999999996","","","","","",""
"","","","","","","","","","","","Stimulus Response","93","2.1.0","45652","5ea824f580b9ef228f589930","Prolific","1","","336","","13","1","","e","","","","","","","","1","","","","",""
"","","","","","","","","","","","Feedback","94","2.1.0","46158","5ea824f580b9ef228f589930","Prolific","1","","null","","13","1","","null","","","","","","","","","","","","",""
"","","","","","","","","","","","Summary Trial","96","2.1.0","46159","5ea824f580b9ef228f589930","Prolific","1","","336","","13","1","","e","313","356","","","","false","3.7499999999999996","1","","Practice","43","",""
"","","","","","","","","","","","html-keyboard-response","98","2.1.0","47164","5ea824f580b9ef228f589930","Prolific","1","","null","","14","1","<p style=""font-size: 70pt;"">+</p>","null","","","","","","","","","","","","",""
"","","","","","","","","","","","Stimulus Presentation","99","2.1.0","47472","5ea824f580b9ef228f589930","Prolific","1","","null","","14","1","","null","356","313","313","43","w","true","3.7499999999999996","","","","","",""
"","","","","","","","","","","","Stimulus Response","100","2.1.0","47661","5ea824f580b9ef228f589930","Prolific","1","","186","","14","1","","w","","","","","","","","1","","","","",""
"","","","","","","","","","","","Feedback","101","2.1.0","48169","5ea824f580b9ef228f589930","Prolific","1","","null","","14","1","","null","","","","","","","","","","","","",""
"","","","","","","","","","","","Summary Trial","103","2.1.0","48170","5ea824f580b9ef228f589930","Prolific","1","","186","","14","1","","w","356","313","","","","true","3.7499999999999996","1","","Practice","43","",""
"","","","","","","","","","","","html-keyboard-response","105","2.1.0","49175","5ea824f580b9ef228f589930","Prolific","1","","null","","15","1","<p style=""font-size: 70pt;"">+</p>","null","","","","","","","","","","","","",""
"","","","","","","","","","","","Stimulus Presentation","106","2.1.0","49483","5ea824f580b9ef228f589930","Prolific","1","","null","","15","1","","null","313","351","313","38","e","false","3.6499999999999995","","","","","",""
"","","","","","","","","","","","Stimulus Response","107","2.1.0","49760","5ea824f580b9ef228f589930","Prolific","1","","276","","15","1","","e","","","","","","","","1","","","","",""
"","","","","","","","","","","","Feedback","108","2.1.0","50266","5ea824f580b9ef228f589930","Prolific","1","","null","","15","1","","null","","","","","","","","","","","","",""
"","","","","","","","","","","","Summary Trial","110","2.1.0","50268","5ea824f580b9ef228f589930","Prolific","1","","276","","15","1","","e","313","351","","","","false","3.6499999999999995","1","","Practice","38","",""
"","","","","","","","","","","","html-keyboard-response","112","2.1.0","51271","5ea824f580b9ef228f589930","Prolific","1","","null","","16","1","<p style=""font-size: 70pt;"">+</p>","null","","","","","","","","","","","","",""
"","","","","","","","","","","","Stimulus Presentation","113","2.1.0","51579","5ea824f580b9ef228f589930","Prolific","1","","null","","16","1","","null","351","313","313","38","w","true","3.6499999999999995","","","","","",""
"","","","","","","","","","","","Stimulus Response","114","2.1.0","51749","5ea824f580b9ef228f589930","Prolific","1","","169","","16","1","","w","","","","","","","","1","","","","",""
"","","","","","","","","","","","Feedback","115","2.1.0","52274","5ea824f580b9ef228f589930","Prolific","1","","null","","16","1","","null","","","","","","","","","","","","",""
"","","","","","","","","","","","Summary Trial","117","2.1.0","52275","5ea824f580b9ef228f589930","Prolific","1","","169","","16","1","","w","351","313","","","","true","3.6499999999999995","1","","Practice","38","",""
"","","","","","","","","","","","html-keyboard-response","119","2.1.0","53279","5ea824f580b9ef228f589930","Prolific","1","","null","","17","1","<p style=""font-size: 70pt;"">+</p>","null","","","","","","","","","","","","",""
"","","","","","","","","","","","Stimulus Presentation","120","2.1.0","53586","5ea824f580b9ef228f589930","Prolific","1","","null","","17","1","","null","313","348","313","35","e","false","3.5499999999999994","","","","","",""
"","","","","","","","","","","","Stimulus Response","121","2.1.0","53775","5ea824f580b9ef228f589930","Prolific","1","","186","","17","1","","e","","","","","","","","1","","","","",""
"","","","","","","","","","","","Feedback","122","2.1.0","54295","5ea824f580b9ef228f589930","Prolific","1","","null","","17","1","","null","","","","","","","","","","","","",""
"","","","","","","","","","","","Summary Trial","124","2.1.0","54295","5ea824f580b9ef228f589930","Prolific","1","","186","","17","1","","e","313","348","","","","false","3.5499999999999994","1","","Practice","35","",""
"","","","","","","","","","","","html-keyboard-response","126","2.1.0","55299","5ea824f580b9ef228f589930","Prolific","1","","null","","18","1","<p style=""font-size: 70pt;"">+</p>","null","","","","","","","","","","","","",""
"","","","","","","","","","","","Stimulus Presentation","127","2.1.0","55607","5ea824f580b9ef228f589930","Prolific","1","","null","","18","1","","null","348","313","313","35","w","true","3.5499999999999994","","","","","",""
"","","","","","","","","","","","Stimulus Response","128","2.1.0","55720","5ea824f580b9ef228f589930","Prolific","1","","111","","18","1","","w","","","","","","","","1","","","","",""
"","","","","","","","","","","","Feedback","129","2.1.0","56222","5ea824f580b9ef228f589930","Prolific","1","","null","","18","1","","null","","","","","","","","","","","","",""
"","","","","","","","","","","","Summary Trial","131","2.1.0","56223","5ea824f580b9ef228f589930","Prolific","1","","111","","18","1","","w","348","313","","","","true","3.5499999999999994","1","","Practice","35","",""
"","","","","","","","","","","","html-keyboard-response","133","2.1.0","57279","5ea824f580b9ef228f589930","Prolific","1","","null","","19","1","<p style=""font-size: 70pt;"">+</p>","null","","","","","","","","","","","","",""
"","","","","","","","","","","","Stimulus Presentation","134","2.1.0","57587","5ea824f580b9ef228f589930","Prolific","1","","null","","19","1","","null","313","345","313","32","e","false","3.4499999999999993","","","","","",""
"","","","","","","","","","","","Stimulus Response","135","2.1.0","57662","5ea824f580b9ef228f589930","Prolific","1","","73","","19","1","","e","","","","","","","","1","","","","",""
"","","","","","","","","","","","Feedback","136","2.1.0","58178","5ea824f580b9ef228f589930","Prolific","1","","null","","19","1","","null","","","","","","","","","","","","",""
"","","","","","","","","","","","Summary Trial","138","2.1.0","58179","5ea824f580b9ef228f589930","Prolific","1","","73","","19","1","","e","313","345","","","","false","3.4499999999999993","1","","Practice","32","",""
"","","","","","","","","","","","html-keyboard-response","140","2.1.0","59285","5ea824f580b9ef228f589930","Prolific","1","","null","","20","1","<p style=""font-size: 70pt;"">+</p>","null","","","","","","","","","","","","",""
"","","","","","","","","","","","Stimulus Presentation","141","2.1.0","59592","5ea824f580b9ef228f589930","Prolific","1","","null","","20","1","","null","345","313","313","32","w","true","3.4499999999999993","","","","","",""
"","","","","","","","","","","","Stimulus Response","142","2.1.0","60078","5ea824f580b9ef228f589930","Prolific","1","","484","","20","1","","w","","","","","","","","1","","","","",""
"","","","","","","","","","","","Feedback","143","2.1.0","60583","5ea824f580b9ef228f589930","Prolific","1","","null","","20","1","","null","","","","","","","","","","","","",""
"","","","","","","","","","","","Summary Trial","145","2.1.0","60585","5ea824f580b9ef228f589930","Prolific","1","","484","","20","1","","w","345","313","","","","true","3.4499999999999993","1","","Practice","32","",""
"","","","","","","","","","","","html-keyboard-response","147","2.1.0","61589","5ea824f580b9ef228f589930","Prolific","1","","null","","21","1","<p style=""font-size: 70pt;"">+</p>","null","","","","","","","","","","","","",""
"","","","","","","","","","","","Stimulus Presentation","148","2.1.0","61896","5ea824f580b9ef228f589930","Prolific","1","","null","","21","1","","null","342","313","313","29","w","true","3.349999999999999","","","","","",""
"","","","","","","","","","","","Stimulus Response","149","2.1.0","62033","5ea824f580b9ef228f589930","Prolific","1","","137","","21","1","","e","","","","","","","","0","","","","",""
"","","","","","","","","","","","Feedback","150","2.1.0","62536","5ea824f580b9ef228f589930","Prolific","1","","null","","21","1","","null","","","","","","","","","","","","",""
"","","","","","","","","","","","Summary Trial","152","2.1.0","62537","5ea824f580b9ef228f589930","Prolific","1","","137","","21","1","","e","342","313","","","","true","3.349999999999999","0","","Practice","29","",""
"","","","","","","","","","","","html-keyboard-response","154","2.1.0","63595","5ea824f580b9ef228f589930","Prolific","1","","null","","22","1","<p style=""font-size: 70pt;"">+</p>","null","","","","","","","","","","","","",""
"","","","","","","","","","","","Stimulus Presentation","155","2.1.0","63902","5ea824f580b9ef228f589930","Prolific","1","","null","","22","1","","null","313","345","313","32","e","false","3.4499999999999993","","","","","",""
"","","","","","","","","","","","Stimulus Response","156","2.1.0","64080","5ea824f580b9ef228f589930","Prolific","1","","176","","22","1","","w","","","","","","","","0","","","","",""
"","","","","","","","","","","","Feedback","157","2.1.0","64586","5ea824f580b9ef228f589930","Prolific","1","","null","","22","1","","null","","","","","","","","","","","","",""
"","","","","","","","","","","","Summary Trial","159","2.1.0","64587","5ea824f580b9ef228f589930","Prolific","1","","176","","22","1","","w","313","345","","","","false","3.4499999999999993","0","","Practice","32","",""
"","","","","","","","","","","","html-keyboard-response","161","2.1.0","65612","5ea824f580b9ef228f589930","Prolific","1","","null","","23","1","<p style=""font-size: 70pt;"">+</p>","null","","","","","","","","","","","","",""
"","","","","","","","","","","","Stimulus Presentation","162","2.1.0","65920","5ea824f580b9ef228f589930","Prolific","1","","null","","23","1","","null","313","348","313","35","e","false","3.5499999999999994","","","","","",""
"","","","","","","","","","","","Stimulus Response","163","2.1.0","66001","5ea824f580b9ef228f589930","Prolific","1","","78","","23","1","","e","","","","","","","","1","","","","",""
"","","","","","","","","","","","Feedback","164","2.1.0","66507","5ea824f580b9ef228f589930","Prolific","1","","null","","23","1","","null","","","","","","","","","","","","",""
"","","","","","","","","","","","Summary Trial","166","2.1.0","66508","5ea824f580b9ef228f589930","Prolific","1","","78","","23","1","","e","313","348","","","","false","3.5499999999999994","1","","Practice","35","",""
"","","","","","","","","","","","html-keyboard-response","168","2.1.0","67633","5ea824f580b9ef228f589930","Prolific","1","","null","","24","1","<p style=""font-size: 70pt;"">+</p>","null","","","","","","","","","","","","",""
"","","","","","","","","","","","Stimulus Presentation","169","2.1.0","67940","5ea824f580b9ef228f589930","Prolific","1","","null","","24","1","","null","348","313","313","35","w","true","3.5499999999999994","","","","","",""
"","","","","","","","","","","","Stimulus Response","170","2.1.0","68228","5ea824f580b9ef228f589930","Prolific","1","","286","","24","1","","w","","","","","","","","1","","","","",""
"","","","","","","","","","","","Feedback","171","2.1.0","68731","5ea824f580b9ef228f589930","Prolific","1","","null","","24","1","","null","","","","","","","","","","","","",""
"","","","","","","","","","","","Summary Trial","173","2.1.0","68731","5ea824f580b9ef228f589930","Prolific","1","","286","","24","1","","w","348","313","","","","true","3.5499999999999994","1","","Practice","35","",""
"","","","","","","","","","","","html-keyboard-response","175","2.1.0","69735","5ea824f580b9ef228f589930","Prolific","1","","null","","25","1","<p style=""font-size: 70pt;"">+</p>","null","","","","","","","","","","","","",""
"","","","","","","","","","","","Stimulus Presentation","176","2.1.0","70041","5ea824f580b9ef228f589930","Prolific","1","","null","","25","1","","null","345","313","313","32","w","true","3.4499999999999993","","","","","",""
"","","","","","","","","","","","Stimulus Response","177","2.1.0","70386","5ea824f580b9ef228f589930","Prolific","1","","344","","25","1","","e","","","","","","","","0","","","","",""
"","","","","","","","","","","","Feedback","178","2.1.0","70893","5ea824f580b9ef228f589930","Prolific","1","","null","","25","1","","null","","","","","","","","","","","","",""
"","","","","","","","","","","","Summary Trial","180","2.1.0","70893","5ea824f580b9ef228f589930","Prolific","1","","344","","25","1","","e","345","313","","","","true","3.4499999999999993","0","","Practice","32","",""
"","","","","","","","","","","","html-keyboard-response","182","2.1.0","71897","5ea824f580b9ef228f589930","Prolific","1","","null","","26","1","<p style=""font-size: 70pt;"">+</p>","null","","","","","","","","","","","","",""
"","","","","","","","","","","","Stimulus Presentation","183","2.1.0","72201","5ea824f580b9ef228f589930","Prolific","1","","null","","26","1","","null","313","348","313","35","e","false","3.5499999999999994","","","","","",""
"","","","","","","","","","","","Stimulus Response","184","2.1.0","74327","5ea824f580b9ef228f589930","Prolific","1","","2126","","26","1","","w","","","","","","","","0","","","","",""
"","","","","","","","","","","","Feedback","185","2.1.0","74833","5ea824f580b9ef228f589930","Prolific","1","","null","","26","1","","null","","","","","","","","","","","","",""
"","","","","","","","","","","","Summary Trial","187","2.1.0","74833","5ea824f580b9ef228f589930","Prolific","1","","2126","","26","1","","w","313","348","","","","false","3.5499999999999994","0","","Practice","35","",""
"","","","","","","","","","","","instructions","188","2.1.0","77923","5ea824f580b9ef228f589930","Prolific","1","","3087","[{""page_index"":0,""viewing_time"":3087}]","","","","","","","","","","","","","","","","",""
"","","","","","","","","","","","Confidence Rating","189","2.1.0","82497","5ea824f580b9ef228f589930","Prolific","1","","4572","","","","A rating scale as shown below is used throughout the task. 
        You will select any point with your mouse.<br>Choose any point on the 
          scale and click &apos;Submit&apos; to continue.<br><br>
            <div id=""conf1"" class=""conf"" style=""height:25px; width:154px; margin-top:2px; margin-left:15px;""></div>
            <div id=""conf2"" class=""conf"" style=""height:25px; width:154px; margin-top:2px; margin-left:169px;""></div>
            <div id=""conf3"" class=""conf"" style=""height:25px; width:154px; margin-top:2px; margin-left:323px;""></div>
            <div id=""conf4"" class=""conf"" style=""height:25px; width:154px; margin-top:2px; margin-left:477px;""></div>
     <div id=""conf5"" class=""conf"" style=""height:25px; width:154px; margin-top:2px; margin-left:631px;""></div>","4","","","","","","","","","","","","50",""
"","","","","","","","","","","","Confidence Rating","190","2.1.0","86019","5ea824f580b9ef228f589930","Prolific","1","","3520","","","","During the task, if you are <strong>very sure</strong> that you made the correct judgement, you should respond <strong>&apos;Certain&apos;</strong><br><br>
            <div id=""conf1"" class=""conf"" style=""height:25px; width:154px; margin-top:2px; margin-left:15px;""></div>
            <div id=""conf2"" class=""conf"" style=""height:25px; width:154px; margin-top:2px; margin-left:169px;""></div>
            <div id=""conf3"" class=""conf"" style=""height:25px; width:154px; margin-top:2px; margin-left:323px;""></div>
            <div id=""conf4"" class=""conf"" style=""height:25px; width:154px; margin-top:2px; margin-left:477px;""></div>
   <div id=""conf5"" class=""conf"" style=""height:25px; width:154px; margin-top:2px; margin-left:631px;""></div>","6","","","","","","","","","","","","50",""
"","","","","","","","","","","","Confidence Rating","191","2.1.0","87209","5ea824f580b9ef228f589930","Prolific","1","","1188","","","","If you are <strong>very unsure</strong> you made the correct judgement, you should respond <strong>&apos;Guessing&apos;</strong><br><br>
            <div id=""conf1"" class=""conf"" style=""height:25px; width:154px; margin-top:2px; margin-left:15px;""></div>
            <div id=""conf2"" class=""conf"" style=""height:25px; width:154px; margin-top:2px; margin-left:169px;""></div>
            <div id=""conf3"" class=""conf"" style=""height:25px; width:154px; margin-top:2px; margin-left:323px;""></div>
            <div id=""conf4"" class=""conf"" style=""height:25px; width:154px; margin-top:2px; margin-left:477px;""></div>
 <div id=""conf5"" class=""conf"" style=""height:25px; width:154px; margin-top:2px; margin-left:631px;""></div>","1","","","","","","","","","","","","1",""
"","","","","","","","","","","","Confidence Rating","192","2.1.0","87794","5ea824f580b9ef228f589930","Prolific","1","","583","","","","If you are <strong>somewhat sure</strong> about being correct, you should select a rating between the two descriptions.<br><br>
            <div id=""conf1"" class=""conf"" style=""height:25px; width:154px; margin-top:2px; margin-left:15px;""></div>
            <div id=""conf2"" class=""conf"" style=""height:25px; width:154px; margin-top:2px; margin-left:169px;""></div>
            <div id=""conf3"" class=""conf"" style=""height:25px; width:154px; margin-top:2px; margin-left:323px;""></div>
            <div id=""conf4"" class=""conf"" style=""height:25px; width:154px; margin-top:2px; margin-left:477px;""></div>
 <div id=""conf5"" class=""conf"" style=""height:25px; width:154px; margin-top:2px; margin-left:631px;""></div>","4","","","","","","","","","","","","4",""
"","","","","","","","","","","","Confidence Rating","193","2.1.0","91382","5ea824f580b9ef228f589930","Prolific","1","","3587","","","","If you understand how to use and take advantage of the whole rating scale, choose any point on the rating scale and click &apos;Submit&apos; to continue.<br><br>
            <div id=""conf1"" class=""conf"" style=""height:25px; width:154px; margin-top:2px; margin-left:15px;""></div>
            <div id=""conf2"" class=""conf"" style=""height:25px; width:154px; margin-top:2px; margin-left:169px;""></div>
            <div id=""conf3"" class=""conf"" style=""height:25px; width:154px; margin-top:2px; margin-left:323px;""></div>
            <div id=""conf4"" class=""conf"" style=""height:25px; width:154px; margin-top:2px; margin-left:477px;""></div>
 <div id=""conf5"" class=""conf"" style=""height:25px; width:154px; margin-top:2px; margin-left:631px;""></div>","6","","","","","","","","","","","","50",""
"","","","","","","","","","","","instructions","194","2.1.0","92407","5ea824f580b9ef228f589930","Prolific","1","","1023","[{""page_index"":0,""viewing_time"":1023}]","","","","","","","","","","","","","","","","",""
"","","","","","","","","","","","instructions","195","2.1.0","93137","5ea824f580b9ef228f589930","Prolific","1","","728","[{""page_index"":0,""viewing_time"":728}]","","","","","","","","","","","","","","","","",""
"","","","","","","","","","","","html-keyboard-response","197","2.1.0","94142","5ea824f580b9ef228f589930","Prolific","1","","null","","27","2","<p style=""font-size: 70pt;"">+</p>","null","","","","","","","","","","","","",""
"","","","","","","","","","","","Stimulus Presentation","198","2.1.0","94450","5ea824f580b9ef228f589930","Prolific","1","","null","","27","2","","null","351","313","313","38","w","true","3.6499999999999995","","","","","",""
"","","","","","","","","","","","Stimulus Response","199","2.1.0","94771","5ea824f580b9ef228f589930","Prolific","1","","319","","27","2","","e","","","","","","","","0","","","","",""
"","","","","","","","","","","","Feedback","200","2.1.0","95273","5ea824f580b9ef228f589930","Prolific","1","","null","","27","2","","null","","","","","","","","","","","","",""
"","","","","","","","","","","","Confidence Rating","201","2.1.0","98262","5ea824f580b9ef228f589930","Prolific","1","","2987","","27","2","<h3>Rate your confidence:</h3>
            <div id=""conf1"" class=""conf"" style=""height:25px; width:154px; margin-top:2px; margin-left:15px;""></div>
            <div id=""conf2"" class=""conf"" style=""height:25px; width:154px; margin-top:2px; margin-left:169px;""></div>
            <div id=""conf3"" class=""conf"" style=""height:25px; width:154px; margin-top:2px; margin-left:323px;""></div>
            <div id=""conf4"" class=""conf"" style=""height:25px; width:154px; margin-top:2px; margin-left:477px;""></div>
          <div id=""conf5"" class=""conf"" style=""height:25px; width:154px; margin-top:2px; margin-left:631px;""></div>","2","","","","","","","","","","","","50",""
"","","","","","","","","","","","Summary Trial","202","2.1.0","98264","5ea824f580b9ef228f589930","Prolific","1","","319","","27","2","","e","351","313","","","","true","3.6499999999999995","0","","Test","38","","2"
"","","","","","","","","","","","html-keyboard-response","204","2.1.0","99270","5ea824f580b9ef228f589930","Prolific","1","","null","","28","2","<p style=""font-size: 70pt;"">+</p>","null","","","","","","","","","","","","",""
"","","","","","","","","","","","Stimulus Presentation","205","2.1.0","99578","5ea824f580b9ef228f589930","Prolific","1","","null","","28","2","","null","313","356","313","43","e","false","3.7499999999999996","","","","","",""
"","","","","","","","","","","","Stimulus Response","206","2.1.0","100051","5ea824f580b9ef228f589930","Prolific","1","","473","","28","2","","w","","","","","","","","0","","","","",""
"","","","","","","","","","","","Feedback","207","2.1.0","100558","5ea824f580b9ef228f589930","Prolific","1","","null","","28","2","","null","","","","","","","","","","","","",""
"","","","","","","","","","","","Confidence Rating","208","2.1.0","102159","5ea824f580b9ef228f589930","Prolific","1","","1600","","28","2","<h3>Rate your confidence:</h3>
            <div id=""conf1"" class=""conf"" style=""height:25px; width:154px; margin-top:2px; margin-left:15px;""></div>
            <div id=""conf2"" class=""conf"" style=""height:25px; width:154px; margin-top:2px; margin-left:169px;""></div>
            <div id=""conf3"" class=""conf"" style=""height:25px; width:154px; margin-top:2px; margin-left:323px;""></div>
            <div id=""conf4"" class=""conf"" style=""height:25px; width:154px; margin-top:2px; margin-left:477px;""></div>
          <div id=""conf5"" class=""conf"" style=""height:25px; width:154px; margin-top:2px; margin-left:631px;""></div>","3","","","","","","","","","","","","50",""
"","","","","","","","","","","","Summary Trial","209","2.1.0","102161","5ea824f580b9ef228f589930","Prolific","1","","473","","28","2","","w","313","356","","","","false","3.7499999999999996","0","","Test","43","","3"
"","","","","","","","","","","","html-keyboard-response","211","2.1.0","103167","5ea824f580b9ef228f589930","Prolific","1","","null","","29","2","<p style=""font-size: 70pt;"">+</p>","null","","","","","","","","","","","","",""
"","","","","","","","","","","","Stimulus Presentation","212","2.1.0","103474","5ea824f580b9ef228f589930","Prolific","1","","null","","29","2","","null","313","360","313","47","e","false","3.8499999999999996","","","","","",""
"","","","","","","","","","","","Stimulus Response","213","2.1.0","103865","5ea824f580b9ef228f589930","Prolific","1","","390","","29","2","","e","","","","","","","","1","","","","",""
"","","","","","","","","","","","Feedback","214","2.1.0","104366","5ea824f580b9ef228f589930","Prolific","1","","null","","29","2","","null","","","","","","","","","","","","",""
"","","","","","","","","","","","Confidence Rating","215","2.1.0","106765","5ea824f580b9ef228f589930","Prolific","1","","2398","","29","2","<h3>Rate your confidence:</h3>
            <div id=""conf1"" class=""conf"" style=""height:25px; width:154px; margin-top:2px; margin-left:15px;""></div>
            <div id=""conf2"" class=""conf"" style=""height:25px; width:154px; margin-top:2px; margin-left:169px;""></div>
            <div id=""conf3"" class=""conf"" style=""height:25px; width:154px; margin-top:2px; margin-left:323px;""></div>
            <div id=""conf4"" class=""conf"" style=""height:25px; width:154px; margin-top:2px; margin-left:477px;""></div>
          <div id=""conf5"" class=""conf"" style=""height:25px; width:154px; margin-top:2px; margin-left:631px;""></div>","6","","","","","","","","","","","","50",""
"","","","","","","","","","","","Summary Trial","216","2.1.0","106766","5ea824f580b9ef228f589930","Prolific","1","","390","","29","2","","e","313","360","","","","false","3.8499999999999996","1","","Test","47","","6"
"","","","","","","","","","","","html-keyboard-response","218","2.1.0","107768","5ea824f580b9ef228f589930","Prolific","1","","null","","30","2","<p style=""font-size: 70pt;"">+</p>","null","","","","","","","","","","","","",""
"","","","","","","","","","","","Stimulus Presentation","219","2.1.0","108075","5ea824f580b9ef228f589930","Prolific","1","","null","","30","2","","null","360","313","313","47","w","true","3.8499999999999996","","","","","",""
"","","","","","","","","","","","Stimulus Response","220","2.1.0","108529","5ea824f580b9ef228f589930","Prolific","1","","452","","30","2","","w","","","","","","","","1","","","","",""
"","","","","","","","","","","","Feedback","221","2.1.0","109033","5ea824f580b9ef228f589930","Prolific","1","","null","","30","2","","null","","","","","","","","","","","","",""
"","","","","","","","","","","","Confidence Rating","222","2.1.0","111133","5ea824f580b9ef228f589930","Prolific","1","","2100","","30","2","<h3>Rate your confidence:</h3>
            <div id=""conf1"" class=""conf"" style=""height:25px; width:154px; margin-top:2px; margin-left:15px;""></div>
            <div id=""conf2"" class=""conf"" style=""height:25px; width:154px; margin-top:2px; margin-left:169px;""></div>
            <div id=""conf3"" class=""conf"" style=""height:25px; width:154px; margin-top:2px; margin-left:323px;""></div>
            <div id=""conf4"" class=""conf"" style=""height:25px; width:154px; margin-top:2px; margin-left:477px;""></div>
          <div id=""conf5"" class=""conf"" style=""height:25px; width:154px; margin-top:2px; margin-left:631px;""></div>","4","","","","","","","","","","","","50",""
"","","","","","","","","","","","Summary Trial","223","2.1.0","111134","5ea824f580b9ef228f589930","Prolific","1","","452","","30","2","","w","360","313","","","","true","3.8499999999999996","1","","Test","47","","4"
"","","","","","","","","","","","html-keyboard-response","225","2.1.0","112138","5ea824f580b9ef228f589930","Prolific","1","","null","","31","2","<p style=""font-size: 70pt;"">+</p>","null","","","","","","","","","","","","",""
"","","","","","","","","","","","Stimulus Presentation","226","2.1.0","112444","5ea824f580b9ef228f589930","Prolific","1","","null","","31","2","","null","356","313","313","43","w","true","3.7499999999999996","","","","","",""
"","","","","","","","","","","","Stimulus Response","227","2.1.0","112751","5ea824f580b9ef228f589930","Prolific","1","","305","","31","2","","e","","","","","","","","0","","","","",""
"","","","","","","","","","","","Feedback","228","2.1.0","113257","5ea824f580b9ef228f589930","Prolific","1","","null","","31","2","","null","","","","","","","","","","","","",""
"","","","","","","","","","","","Confidence Rating","229","2.1.0","114461","5ea824f580b9ef228f589930","Prolific","1","","1202","","31","2","<h3>Rate your confidence:</h3>
            <div id=""conf1"" class=""conf"" style=""height:25px; width:154px; margin-top:2px; margin-left:15px;""></div>
            <div id=""conf2"" class=""conf"" style=""height:25px; width:154px; margin-top:2px; margin-left:169px;""></div>
            <div id=""conf3"" class=""conf"" style=""height:25px; width:154px; margin-top:2px; margin-left:323px;""></div>
            <div id=""conf4"" class=""conf"" style=""height:25px; width:154px; margin-top:2px; margin-left:477px;""></div>
          <div id=""conf5"" class=""conf"" style=""height:25px; width:154px; margin-top:2px; margin-left:631px;""></div>","5","","","","","","","","","","","","50",""
"","","","","","","","","","","","Summary Trial","230","2.1.0","114463","5ea824f580b9ef228f589930","Prolific","1","","305","","31","2","","e","356","313","","","","true","3.7499999999999996","0","","Test","43","","5"
"","","","","","","","","","","","html-keyboard-response","232","2.1.0","115469","5ea824f580b9ef228f589930","Prolific","1","","null","","32","2","<p style=""font-size: 70pt;"">+</p>","null","","","","","","","","","","","","",""
"","","","","","","","","","","","Stimulus Presentation","233","2.1.0","115775","5ea824f580b9ef228f589930","Prolific","1","","null","","32","2","","null","313","360","313","47","e","false","3.8499999999999996","","","","","",""
"","","","","","","","","","","","Stimulus Response","234","2.1.0","115940","5ea824f580b9ef228f589930","Prolific","1","","163","","32","2","","e","","","","","","","","1","","","","",""
"","","","","","","","","","","","Feedback","235","2.1.0","116442","5ea824f580b9ef228f589930","Prolific","1","","null","","32","2","","null","","","","","","","","","","","","",""
"","","","","","","","","","","","Confidence Rating","236","2.1.0","118763","5ea824f580b9ef228f589930","Prolific","1","","2319","","32","2","<h3>Rate your confidence:</h3>
            <div id=""conf1"" class=""conf"" style=""height:25px; width:154px; margin-top:2px; margin-left:15px;""></div>
            <div id=""conf2"" class=""conf"" style=""height:25px; width:154px; margin-top:2px; margin-left:169px;""></div>
            <div id=""conf3"" class=""conf"" style=""height:25px; width:154px; margin-top:2px; margin-left:323px;""></div>
            <div id=""conf4"" class=""conf"" style=""height:25px; width:154px; margin-top:2px; margin-left:477px;""></div>
          <div id=""conf5"" class=""conf"" style=""height:25px; width:154px; margin-top:2px; margin-left:631px;""></div>","5","","","","","","","","","","","","50",""
"","","","","","","","","","","","Summary Trial","237","2.1.0","118764","5ea824f580b9ef228f589930","Prolific","1","","163","","32","2","","e","313","360","","","","false","3.8499999999999996","1","","Test","47","","5"
"","","","","","","","","","","","html-keyboard-response","239","2.1.0","119770","5ea824f580b9ef228f589930","Prolific","1","","null","","33","2","<p style=""font-size: 70pt;"">+</p>","null","","","","","","","","","","","","",""
"","","","","","","","","","","","Stimulus Presentation","240","2.1.0","120076","5ea824f580b9ef228f589930","Prolific","1","","null","","33","2","","null","360","313","313","47","w","true","3.8499999999999996","","","","","",""
"","","","","","","","","","","","Stimulus Response","241","2.1.0","120419","5ea824f580b9ef228f589930","Prolific","1","","342","","33","2","","e","","","","","","","","0","","","","",""
"","","","","","","","","","","","Feedback","242","2.1.0","120921","5ea824f580b9ef228f589930","Prolific","1","","null","","33","2","","null","","","","","","","","","","","","",""
"","","","","","","","","","","","Confidence Rating","243","2.1.0","122285","5ea824f580b9ef228f589930","Prolific","1","","1362","","33","2","<h3>Rate your confidence:</h3>
            <div id=""conf1"" class=""conf"" style=""height:25px; width:154px; margin-top:2px; margin-left:15px;""></div>
            <div id=""conf2"" class=""conf"" style=""height:25px; width:154px; margin-top:2px; margin-left:169px;""></div>
            <div id=""conf3"" class=""conf"" style=""height:25px; width:154px; margin-top:2px; margin-left:323px;""></div>
            <div id=""conf4"" class=""conf"" style=""height:25px; width:154px; margin-top:2px; margin-left:477px;""></div>
          <div id=""conf5"" class=""conf"" style=""height:25px; width:154px; margin-top:2px; margin-left:631px;""></div>","5","","","","","","","","","","","","50",""
"","","","","","","","","","","","Summary Trial","244","2.1.0","122287","5ea824f580b9ef228f589930","Prolific","1","","342","","33","2","","e","360","313","","","","true","3.8499999999999996","0","","Test","47","","5"
"","","","","","","","","","","","html-keyboard-response","246","2.1.0","123292","5ea824f580b9ef228f589930","Prolific","1","","null","","34","2","<p style=""font-size: 70pt;"">+</p>","null","","","","","","","","","","","","",""
"","","","","","","","","","","","Stimulus Presentation","247","2.1.0","123597","5ea824f580b9ef228f589930","Prolific","1","","null","","34","2","","null","313","365","313","52","e","false","3.9499999999999997","","","","","",""
"","","","","","","","","","","","Stimulus Response","248","2.1.0","123739","5ea824f580b9ef228f589930","Prolific","1","","139","","34","2","","e","","","","","","","","1","","","","",""
"","","","","","","","","","","","Feedback","249","2.1.0","124244","5ea824f580b9ef228f589930","Prolific","1","","null","","34","2","","null","","","","","","","","","","","","",""
"","","","","","","","","","","","Confidence Rating","250","2.1.0","125483","5ea824f580b9ef228f589930","Prolific","1","","1237","","34","2","<h3>Rate your confidence:</h3>
            <div id=""conf1"" class=""conf"" style=""height:25px; width:154px; margin-top:2px; margin-left:15px;""></div>
            <div id=""conf2"" class=""conf"" style=""height:25px; width:154px; margin-top:2px; margin-left:169px;""></div>
            <div id=""conf3"" class=""conf"" style=""height:25px; width:154px; margin-top:2px; margin-left:323px;""></div>
            <div id=""conf4"" class=""conf"" style=""height:25px; width:154px; margin-top:2px; margin-left:477px;""></div>
          <div id=""conf5"" class=""conf"" style=""height:25px; width:154px; margin-top:2px; margin-left:631px;""></div>","5","","","","","","","","","","","","50",""
"","","","","","","","","","","","Summary Trial","251","2.1.0","125486","5ea824f580b9ef228f589930","Prolific","1","","139","","34","2","","e","313","365","","","","false","3.9499999999999997","1","","Test","52","","5"
"","","","","","","","","","","","html-keyboard-response","253","2.1.0","126488","5ea824f580b9ef228f589930","Prolific","1","","null","","35","2","<p style=""font-size: 70pt;"">+</p>","null","","","","","","","","","","","","",""
"","","","","","","","","","","","Stimulus Presentation","254","2.1.0","126795","5ea824f580b9ef228f589930","Prolific","1","","null","","35","2","","null","313","365","313","52","e","false","3.9499999999999997","","","","","",""
"","","","","","","","","","","","Stimulus Response","255","2.1.0","126874","5ea824f580b9ef228f589930","Prolific","1","","77","","35","2","","e","","","","","","","","1","","","","",""
"","","","","","","","","","","","Feedback","256","2.1.0","127376","5ea824f580b9ef228f589930","Prolific","1","","null","","35","2","","null","","","","","","","","","","","","",""
"","","","","","","","","","","","Confidence Rating","257","2.1.0","128717","5ea824f580b9ef228f589930","Prolific","1","","1340","","35","2","<h3>Rate your confidence:</h3>
            <div id=""conf1"" class=""conf"" style=""height:25px; width:154px; margin-top:2px; margin-left:15px;""></div>
            <div id=""conf2"" class=""conf"" style=""height:25px; width:154px; margin-top:2px; margin-left:169px;""></div>
            <div id=""conf3"" class=""conf"" style=""height:25px; width:154px; margin-top:2px; margin-left:323px;""></div>
            <div id=""conf4"" class=""conf"" style=""height:25px; width:154px; margin-top:2px; margin-left:477px;""></div>
          <div id=""conf5"" class=""conf"" style=""height:25px; width:154px; margin-top:2px; margin-left:631px;""></div>","6","","","","","","","","","","","","50",""
"","","","","","","","","","","","Summary Trial","258","2.1.0","128719","5ea824f580b9ef228f589930","Prolific","1","","77","","35","2","","e","313","365","","","","false","3.9499999999999997","1","","Test","52","","6"
"","","","","","","","","","","","html-keyboard-response","260","2.1.0","129724","5ea824f580b9ef228f589930","Prolific","1","","null","","36","2","<p style=""font-size: 70pt;"">+</p>","null","","","","","","","","","","","","",""
"","","","","","","","","","","","Stimulus Presentation","261","2.1.0","130031","5ea824f580b9ef228f589930","Prolific","1","","null","","36","2","","null","360","313","313","47","w","true","3.8499999999999996","","","","","",""
"","","","","","","","","","","","Stimulus Response","262","2.1.0","130345","5ea824f580b9ef228f589930","Prolific","1","","313","","36","2","","w","","","","","","","","1","","","","",""
"","","","","","","","","","","","Feedback","263","2.1.0","130851","5ea824f580b9ef228f589930","Prolific","1","","null","","36","2","","null","","","","","","","","","","","","",""
"","","","","","","","","","","","Confidence Rating","264","2.1.0","132353","5ea824f580b9ef228f589930","Prolific","1","","1500","","36","2","<h3>Rate your confidence:</h3>
            <div id=""conf1"" class=""conf"" style=""height:25px; width:154px; margin-top:2px; margin-left:15px;""></div>
            <div id=""conf2"" class=""conf"" style=""height:25px; width:154px; margin-top:2px; margin-left:169px;""></div>
            <div id=""conf3"" class=""conf"" style=""height:25px; width:154px; margin-top:2px; margin-left:323px;""></div>
            <div id=""conf4"" class=""conf"" style=""height:25px; width:154px; margin-top:2px; margin-left:477px;""></div>
          <div id=""conf5"" class=""conf"" style=""height:25px; width:154px; margin-top:2px; margin-left:631px;""></div>","4","","","","","","","","","","","","50",""
"","","","","","","","","","","","Summary Trial","265","2.1.0","132353","5ea824f580b9ef228f589930","Prolific","1","","313","","36","2","","w","360","313","","","","true","3.8499999999999996","1","","Test","47","","4"
"","","","","","","","","","","","html-keyboard-response","267","2.1.0","133360","5ea824f580b9ef228f589930","Prolific","1","","null","","37","2","<p style=""font-size: 70pt;"">+</p>","null","","","","","","","","","","","","",""
"","","","","","","","","","","","Stimulus Presentation","268","2.1.0","133667","5ea824f580b9ef228f589930","Prolific","1","","null","","37","2","","null","313","360","313","47","e","false","3.8499999999999996","","","","","",""
"","","","","","","","","","","","Stimulus Response","269","2.1.0","133798","5ea824f580b9ef228f589930","Prolific","1","","130","","37","2","","e","","","","","","","","1","","","","",""
"","","","","","","","","","","","Feedback","270","2.1.0","134300","5ea824f580b9ef228f589930","Prolific","1","","null","","37","2","","null","","","","","","","","","","","","",""
"","","","","","","","","","","","Confidence Rating","271","2.1.0","136598","5ea824f580b9ef228f589930","Prolific","1","","2296","","37","2","<h3>Rate your confidence:</h3>
            <div id=""conf1"" class=""conf"" style=""height:25px; width:154px; margin-top:2px; margin-left:15px;""></div>
            <div id=""conf2"" class=""conf"" style=""height:25px; width:154px; margin-top:2px; margin-left:169px;""></div>
            <div id=""conf3"" class=""conf"" style=""height:25px; width:154px; margin-top:2px; margin-left:323px;""></div>
            <div id=""conf4"" class=""conf"" style=""height:25px; width:154px; margin-top:2px; margin-left:477px;""></div>
          <div id=""conf5"" class=""conf"" style=""height:25px; width:154px; margin-top:2px; margin-left:631px;""></div>","5","","","","","","","","","","","","50",""
"","","","","","","","","","","","Summary Trial","272","2.1.0","136599","5ea824f580b9ef228f589930","Prolific","1","","130","","37","2","","e","313","360","","","","false","3.8499999999999996","1","","Test","47","","5"
"","","","","","","","","","","","html-keyboard-response","274","2.1.0","137605","5ea824f580b9ef228f589930","Prolific","1","","null","","38","2","<p style=""font-size: 70pt;"">+</p>","null","","","","","","","","","","","","",""
"","","","","","","","","","","","Stimulus Presentation","275","2.1.0","137912","5ea824f580b9ef228f589930","Prolific","1","","null","","38","2","","null","356","313","313","43","w","true","3.7499999999999996","","","","","",""
"","","","","","","","","","","","Stimulus Response","276","2.1.0","138105","5ea824f580b9ef228f589930","Prolific","1","","192","","38","2","","e","","","","","","","","0","","","","",""
"","","","","","","","","","","","Feedback","277","2.1.0","138610","5ea824f580b9ef228f589930","Prolific","1","","null","","38","2","","null","","","","","","","","","","","","",""
"","","","","","","","","","","","Confidence Rating","278","2.1.0","140130","5ea824f580b9ef228f589930","Prolific","1","","1519","","38","2","<h3>Rate your confidence:</h3>
            <div id=""conf1"" class=""conf"" style=""height:25px; width:154px; margin-top:2px; margin-left:15px;""></div>
            <div id=""conf2"" class=""conf"" style=""height:25px; width:154px; margin-top:2px; margin-left:169px;""></div>
            <div id=""conf3"" class=""conf"" style=""height:25px; width:154px; margin-top:2px; margin-left:323px;""></div>
            <div id=""conf4"" class=""conf"" style=""height:25px; width:154px; margin-top:2px; margin-left:477px;""></div>
          <div id=""conf5"" class=""conf"" style=""height:25px; width:154px; margin-top:2px; margin-left:631px;""></div>","3","","","","","","","","","","","","50",""
"","","","","","","","","","","","Summary Trial","279","2.1.0","140131","5ea824f580b9ef228f589930","Prolific","1","","192","","38","2","","e","356","313","","","","true","3.7499999999999996","0","","Test","43","","3"
"","","","","","","","","","","","html-keyboard-response","281","2.1.0","141174","5ea824f580b9ef228f589930","Prolific","1","","null","","39","2","<p style=""font-size: 70pt;"">+</p>","null","","","","","","","","","","","","",""
"","","","","","","","","","","","Stimulus Presentation","282","2.1.0","141479","5ea824f580b9ef228f589930","Prolific","1","","null","","39","2","","null","313","360","313","47","e","false","3.8499999999999996","","","","","",""
"","","","","","","","","","","","Stimulus Response","283","2.1.0","141702","5ea824f580b9ef228f589930","Prolific","1","","221","","39","2","","e","","","","","","","","1","","","","",""
"","","","","","","","","","","","Feedback","284","2.1.0","142206","5ea824f580b9ef228f589930","Prolific","1","","null","","39","2","","null","","","","","","","","","","","","",""
"","","","","","","","","","","","Confidence Rating","285","2.1.0","144164","5ea824f580b9ef228f589930","Prolific","1","","1955","","39","2","<h3>Rate your confidence:</h3>
            <div id=""conf1"" class=""conf"" style=""height:25px; width:154px; margin-top:2px; margin-left:15px;""></div>
            <div id=""conf2"" class=""conf"" style=""height:25px; width:154px; margin-top:2px; margin-left:169px;""></div>
            <div id=""conf3"" class=""conf"" style=""height:25px; width:154px; margin-top:2px; margin-left:323px;""></div>
            <div id=""conf4"" class=""conf"" style=""height:25px; width:154px; margin-top:2px; margin-left:477px;""></div>
          <div id=""conf5"" class=""conf"" style=""height:25px; width:154px; margin-top:2px; margin-left:631px;""></div>","4","","","","","","","","","","","","50",""
"","","","","","","","","","","","Summary Trial","286","2.1.0","144165","5ea824f580b9ef228f589930","Prolific","1","","221","","39","2","","e","313","360","","","","false","3.8499999999999996","1","","Test","47","","4"
"","","","","","","","","","","","html-keyboard-response","288","2.1.0","145170","5ea824f580b9ef228f589930","Prolific","1","","null","","40","2","<p style=""font-size: 70pt;"">+</p>","null","","","","","","","","","","","","",""
"","","","","","","","","","","","Stimulus Presentation","289","2.1.0","145478","5ea824f580b9ef228f589930","Prolific","1","","null","","40","2","","null","360","313","313","47","w","true","3.8499999999999996","","","","","",""
"","","","","","","","","","","","Stimulus Response","290","2.1.0","145690","5ea824f580b9ef228f589930","Prolific","1","","211","","40","2","","e","","","","","","","","0","","","","",""
"","","","","","","","","","","","Feedback","291","2.1.0","146191","5ea824f580b9ef228f589930","Prolific","1","","null","","40","2","","null","","","","","","","","","","","","",""
"","","","","","","","","","","","Confidence Rating","292","2.1.0","147590","5ea824f580b9ef228f589930","Prolific","1","","1396","","40","2","<h3>Rate your confidence:</h3>
            <div id=""conf1"" class=""conf"" style=""height:25px; width:154px; margin-top:2px; margin-left:15px;""></div>
            <div id=""conf2"" class=""conf"" style=""height:25px; width:154px; margin-top:2px; margin-left:169px;""></div>
            <div id=""conf3"" class=""conf"" style=""height:25px; width:154px; margin-top:2px; margin-left:323px;""></div>
            <div id=""conf4"" class=""conf"" style=""height:25px; width:154px; margin-top:2px; margin-left:477px;""></div>
          <div id=""conf5"" class=""conf"" style=""height:25px; width:154px; margin-top:2px; margin-left:631px;""></div>","5","","","","","","","","","","","","50",""
"","","","","","","","","","","","Summary Trial","293","2.1.0","147591","5ea824f580b9ef228f589930","Prolific","1","","211","","40","2","","e","360","313","","","","true","3.8499999999999996","0","","Test","47","","5"
"","","","","","","","","","","","html-keyboard-response","295","2.1.0","148618","5ea824f580b9ef228f589930","Prolific","1","","null","","41","2","<p style=""font-size: 70pt;"">+</p>","null","","","","","","","","","","","","",""
"","","","","","","","","","","","Stimulus Presentation","296","2.1.0","148922","5ea824f580b9ef228f589930","Prolific","1","","null","","41","2","","null","365","313","313","52","w","true","3.9499999999999997","","","","","",""
"","","","","","","","","","","","Stimulus Response","297","2.1.0","149338","5ea824f580b9ef228f589930","Prolific","1","","414","","41","2","","w","","","","","","","","1","","","","",""
"","","","","","","","","","","","Feedback","298","2.1.0","149842","5ea824f580b9ef228f589930","Prolific","1","","null","","41","2","","null","","","","","","","","","","","","",""
"","","","","","","","","","","","Confidence Rating","299","2.1.0","151426","5ea824f580b9ef228f589930","Prolific","1","","1583","","41","2","<h3>Rate your confidence:</h3>
            <div id=""conf1"" class=""conf"" style=""height:25px; width:154px; margin-top:2px; margin-left:15px;""></div>
            <div id=""conf2"" class=""conf"" style=""height:25px; width:154px; margin-top:2px; margin-left:169px;""></div>
            <div id=""conf3"" class=""conf"" style=""height:25px; width:154px; margin-top:2px; margin-left:323px;""></div>
            <div id=""conf4"" class=""conf"" style=""height:25px; width:154px; margin-top:2px; margin-left:477px;""></div>
          <div id=""conf5"" class=""conf"" style=""height:25px; width:154px; margin-top:2px; margin-left:631px;""></div>","5","","","","","","","","","","","","50",""
"","","","","","","","","","","","Summary Trial","300","2.1.0","151427","5ea824f580b9ef228f589930","Prolific","1","","414","","41","2","","w","365","313","","","","true","3.9499999999999997","1","","Test","52","","5"
"","","","","","","","","","","","html-keyboard-response","302","2.1.0","152429","5ea824f580b9ef228f589930","Prolific","1","","null","","42","2","<p style=""font-size: 70pt;"">+</p>","null","","","","","","","","","","","","",""
"","","","","","","","","","","","Stimulus Presentation","303","2.1.0","152737","5ea824f580b9ef228f589930","Prolific","1","","null","","42","2","","null","313","365","313","52","e","false","3.9499999999999997","","","","","",""
"","","","","","","","","","","","Stimulus Response","304","2.1.0","153092","5ea824f580b9ef228f589930","Prolific","1","","353","","42","2","","e","","","","","","","","1","","","","",""
"","","","","","","","","","","","Feedback","305","2.1.0","153619","5ea824f580b9ef228f589930","Prolific","1","","null","","42","2","","null","","","","","","","","","","","","",""
"","","","","","","","","","","","Confidence Rating","306","2.1.0","155775","5ea824f580b9ef228f589930","Prolific","1","","2155","","42","2","<h3>Rate your confidence:</h3>
            <div id=""conf1"" class=""conf"" style=""height:25px; width:154px; margin-top:2px; margin-left:15px;""></div>
            <div id=""conf2"" class=""conf"" style=""height:25px; width:154px; margin-top:2px; margin-left:169px;""></div>
            <div id=""conf3"" class=""conf"" style=""height:25px; width:154px; margin-top:2px; margin-left:323px;""></div>
            <div id=""conf4"" class=""conf"" style=""height:25px; width:154px; margin-top:2px; margin-left:477px;""></div>
          <div id=""conf5"" class=""conf"" style=""height:25px; width:154px; margin-top:2px; margin-left:631px;""></div>","5","","","","","","","","","","","","50",""
"","","","","","","","","","","","Summary Trial","307","2.1.0","155777","5ea824f580b9ef228f589930","Prolific","1","","353","","42","2","","e","313","365","","","","false","3.9499999999999997","1","","Test","52","","5"
"","","","","","","","","","","","html-keyboard-response","309","2.1.0","156782","5ea824f580b9ef228f589930","Prolific","1","","null","","43","2","<p style=""font-size: 70pt;"">+</p>","null","","","","","","","","","","","","",""
"","","","","","","","","","","","Stimulus Presentation","310","2.1.0","157090","5ea824f580b9ef228f589930","Prolific","1","","null","","43","2","","null","313","360","313","47","e","false","3.8499999999999996","","","","","",""
"","","","","","","","","","","","Stimulus Response","311","2.1.0","157359","5ea824f580b9ef228f589930","Prolific","1","","268","","43","2","","e","","","","","","","","1","","","","",""
"","","","","","","","","","","","Feedback","312","2.1.0","157864","5ea824f580b9ef228f589930","Prolific","1","","null","","43","2","","null","","","","","","","","","","","","",""
"","","","","","","","","","","","Confidence Rating","313","2.1.0","159410","5ea824f580b9ef228f589930","Prolific","1","","1544","","43","2","<h3>Rate your confidence:</h3>
            <div id=""conf1"" class=""conf"" style=""height:25px; width:154px; margin-top:2px; margin-left:15px;""></div>
            <div id=""conf2"" class=""conf"" style=""height:25px; width:154px; margin-top:2px; margin-left:169px;""></div>
            <div id=""conf3"" class=""conf"" style=""height:25px; width:154px; margin-top:2px; margin-left:323px;""></div>
            <div id=""conf4"" class=""conf"" style=""height:25px; width:154px; margin-top:2px; margin-left:477px;""></div>
          <div id=""conf5"" class=""conf"" style=""height:25px; width:154px; margin-top:2px; margin-left:631px;""></div>","5","","","","","","","","","","","","50",""
"","","","","","","","","","","","Summary Trial","314","2.1.0","159412","5ea824f580b9ef228f589930","Prolific","1","","268","","43","2","","e","313","360","","","","false","3.8499999999999996","1","","Test","47","","5"
"","","","","","","","","","","","html-keyboard-response","316","2.1.0","160417","5ea824f580b9ef228f589930","Prolific","1","","null","","44","2","<p style=""font-size: 70pt;"">+</p>","null","","","","","","","","","","","","",""
"","","","","","","","","","","","Stimulus Presentation","317","2.1.0","160725","5ea824f580b9ef228f589930","Prolific","1","","null","","44","2","","null","360","313","313","47","w","true","3.8499999999999996","","","","","",""
"","","","","","","","","","","","Stimulus Response","318","2.1.0","160947","5ea824f580b9ef228f589930","Prolific","1","","220","","44","2","","e","","","","","","","","0","","","","",""
"","","","","","","","","","","","Feedback","319","2.1.0","161451","5ea824f580b9ef228f589930","Prolific","1","","null","","44","2","","null","","","","","","","","","","","","",""
"","","","","","","","","","","","Confidence Rating","320","2.1.0","164131","5ea824f580b9ef228f589930","Prolific","1","","2679","","44","2","<h3>Rate your confidence:</h3>
            <div id=""conf1"" class=""conf"" style=""height:25px; width:154px; margin-top:2px; margin-left:15px;""></div>
            <div id=""conf2"" class=""conf"" style=""height:25px; width:154px; margin-top:2px; margin-left:169px;""></div>
            <div id=""conf3"" class=""conf"" style=""height:25px; width:154px; margin-top:2px; margin-left:323px;""></div>
            <div id=""conf4"" class=""conf"" style=""height:25px; width:154px; margin-top:2px; margin-left:477px;""></div>
          <div id=""conf5"" class=""conf"" style=""height:25px; width:154px; margin-top:2px; margin-left:631px;""></div>","1","","","","","","","","","","","","50",""
"","","","","","","","","","","","Summary Trial","321","2.1.0","164133","5ea824f580b9ef228f589930","Prolific","1","","220","","44","2","","e","360","313","","","","true","3.8499999999999996","0","","Test","47","","1"
"","","","","","","","","","","","html-keyboard-response","323","2.1.0","165134","5ea824f580b9ef228f589930","Prolific","1","","null","","45","2","<p style=""font-size: 70pt;"">+</p>","null","","","","","","","","","","","","",""
"","","","","","","","","","","","Stimulus Presentation","324","2.1.0","165442","5ea824f580b9ef228f589930","Prolific","1","","null","","45","2","","null","313","365","313","52","e","false","3.9499999999999997","","","","","",""
"","","","","","","","","","","","Stimulus Response","325","2.1.0","165628","5ea824f580b9ef228f589930","Prolific","1","","185","","45","2","","e","","","","","","","","1","","","","",""
"","","","","","","","","","","","Feedback","326","2.1.0","166131","5ea824f580b9ef228f589930","Prolific","1","","null","","45","2","","null","","","","","","","","","","","","",""
"","","","","","","","","","","","Confidence Rating","327","2.1.0","167719","5ea824f580b9ef228f589930","Prolific","1","","1587","","45","2","<h3>Rate your confidence:</h3>
            <div id=""conf1"" class=""conf"" style=""height:25px; width:154px; margin-top:2px; margin-left:15px;""></div>
            <div id=""conf2"" class=""conf"" style=""height:25px; width:154px; margin-top:2px; margin-left:169px;""></div>
            <div id=""conf3"" class=""conf"" style=""height:25px; width:154px; margin-top:2px; margin-left:323px;""></div>
            <div id=""conf4"" class=""conf"" style=""height:25px; width:154px; margin-top:2px; margin-left:477px;""></div>
          <div id=""conf5"" class=""conf"" style=""height:25px; width:154px; margin-top:2px; margin-left:631px;""></div>","5","","","","","","","","","","","","50",""
"","","","","","","","","","","","Summary Trial","328","2.1.0","167721","5ea824f580b9ef228f589930","Prolific","1","","185","","45","2","","e","313","365","","","","false","3.9499999999999997","1","","Test","52","","5"
"","","","","","","","","","","","html-keyboard-response","330","2.1.0","168803","5ea824f580b9ef228f589930","Prolific","1","","null","","46","2","<p style=""font-size: 70pt;"">+</p>","null","","","","","","","","","","","","",""
"","","","","","","","","","","","Stimulus Presentation","331","2.1.0","169140","5ea824f580b9ef228f589930","Prolific","1","","null","","46","2","","null","365","313","313","52","w","true","3.9499999999999997","","","","","",""
"","","","","","","","","","","","Stimulus Response","332","2.1.0","169346","5ea824f580b9ef228f589930","Prolific","1","","205","","46","2","","w","","","","","","","","1","","","","",""
"","","","","","","","","","","","Feedback","333","2.1.0","169851","5ea824f580b9ef228f589930","Prolific","1","","null","","46","2","","null","","","","","","","","","","","","",""
"","","","","","","","","","","","Confidence Rating","334","2.1.0","171413","5ea824f580b9ef228f589930","Prolific","1","","1562","","46","2","<h3>Rate your confidence:</h3>
            <div id=""conf1"" class=""conf"" style=""height:25px; width:154px; margin-top:2px; margin-left:15px;""></div>
            <div id=""conf2"" class=""conf"" style=""height:25px; width:154px; margin-top:2px; margin-left:169px;""></div>
            <div id=""conf3"" class=""conf"" style=""height:25px; width:154px; margin-top:2px; margin-left:323px;""></div>
            <div id=""conf4"" class=""conf"" style=""height:25px; width:154px; margin-top:2px; margin-left:477px;""></div>
          <div id=""conf5"" class=""conf"" style=""height:25px; width:154px; margin-top:2px; margin-left:631px;""></div>","5","","","","","","","","","","","","50",""
"","","","","","","","","","","","Summary Trial","335","2.1.0","171414","5ea824f580b9ef228f589930","Prolific","1","","205","","46","2","","w","365","313","","","","true","3.9499999999999997","1","","Test","52","","5"
"","","","","","","","","","","","html-keyboard-response","337","2.1.0","172421","5ea824f580b9ef228f589930","Prolific","1","","null","","47","2","<p style=""font-size: 70pt;"">+</p>","null","","","","","","","","","","","","",""
"","","","","","","","","","","","Stimulus Presentation","338","2.1.0","172727","5ea824f580b9ef228f589930","Prolific","1","","null","","47","2","","null","313","360","313","47","e","false","3.8499999999999996","","","","","",""
"","","","","","","","","","","","Stimulus Response","339","2.1.0","173046","5ea824f580b9ef228f589930","Prolific","1","","317","","47","2","","e","","","","","","","","1","","","","",""
"","","","","","","","","","","","Feedback","340","2.1.0","173552","5ea824f580b9ef228f589930","Prolific","1","","null","","47","2","","null","","","","","","","","","","","","",""
"","","","","","","","","","","","Confidence Rating","341","2.1.0","174886","5ea824f580b9ef228f589930","Prolific","1","","1331","","47","2","<h3>Rate your confidence:</h3>
            <div id=""conf1"" class=""conf"" style=""height:25px; width:154px; margin-top:2px; margin-left:15px;""></div>
            <div id=""conf2"" class=""conf"" style=""height:25px; width:154px; margin-top:2px; margin-left:169px;""></div>
            <div id=""conf3"" class=""conf"" style=""height:25px; width:154px; margin-top:2px; margin-left:323px;""></div>
            <div id=""conf4"" class=""conf"" style=""height:25px; width:154px; margin-top:2px; margin-left:477px;""></div>
          <div id=""conf5"" class=""conf"" style=""height:25px; width:154px; margin-top:2px; margin-left:631px;""></div>","5","","","","","","","","","","","","50",""
"","","","","","","","","","","","Summary Trial","342","2.1.0","174887","5ea824f580b9ef228f589930","Prolific","1","","317","","47","2","","e","313","360","","","","false","3.8499999999999996","1","","Test","47","","5"
"","","","","","","","","","","","html-keyboard-response","344","2.1.0","175890","5ea824f580b9ef228f589930","Prolific","1","","null","","48","2","<p style=""font-size: 70pt;"">+</p>","null","","","","","","","","","","","","",""
"","","","","","","","","","","","Stimulus Presentation","345","2.1.0","176192","5ea824f580b9ef228f589930","Prolific","1","","null","","48","2","","null","360","313","313","47","w","true","3.8499999999999996","","","","","",""
"","","","","","","","","","","","Stimulus Response","346","2.1.0","176430","5ea824f580b9ef228f589930","Prolific","1","","236","","48","2","","e","","","","","","","","0","","","","",""
"","","","","","","","","","","","Feedback","347","2.1.0","176931","5ea824f580b9ef228f589930","Prolific","1","","null","","48","2","","null","","","","","","","","","","","","",""
"","","","","","","","","","","","Confidence Rating","348","2.1.0","178305","5ea824f580b9ef228f589930","Prolific","1","","1372","","48","2","<h3>Rate your confidence:</h3>
            <div id=""conf1"" class=""conf"" style=""height:25px; width:154px; margin-top:2px; margin-left:15px;""></div>
            <div id=""conf2"" class=""conf"" style=""height:25px; width:154px; margin-top:2px; margin-left:169px;""></div>
            <div id=""conf3"" class=""conf"" style=""height:25px; width:154px; margin-top:2px; margin-left:323px;""></div>
            <div id=""conf4"" class=""conf"" style=""height:25px; width:154px; margin-top:2px; margin-left:477px;""></div>
          <div id=""conf5"" class=""conf"" style=""height:25px; width:154px; margin-top:2px; margin-left:631px;""></div>","5","","","","","","","","","","","","50",""
"","","","","","","","","","","","Summary Trial","349","2.1.0","178306","5ea824f580b9ef228f589930","Prolific","1","","236","","48","2","","e","360","313","","","","true","3.8499999999999996","0","","Test","47","","5"
"","","","","","","","","","","","html-keyboard-response","351","2.1.0","179313","5ea824f580b9ef228f589930","Prolific","1","","null","","49","2","<p style=""font-size: 70pt;"">+</p>","null","","","","","","","","","","","","",""
"","","","","","","","","","","","Stimulus Presentation","352","2.1.0","179620","5ea824f580b9ef228f589930","Prolific","1","","null","","49","2","","null","313","365","313","52","e","false","3.9499999999999997","","","","","",""
"","","","","","","","","","","","Stimulus Response","353","2.1.0","179802","5ea824f580b9ef228f589930","Prolific","1","","180","","49","2","","e","","","","","","","","1","","","","",""
"","","","","","","","","","","","Feedback","354","2.1.0","180306","5ea824f580b9ef228f589930","Prolific","1","","null","","49","2","","null","","","","","","","","","","","","",""
"","","","","","","","","","","","Confidence Rating","355","2.1.0","181551","5ea824f580b9ef228f589930","Prolific","1","","1244","","49","2","<h3>Rate your confidence:</h3>
            <div id=""conf1"" class=""conf"" style=""height:25px; width:154px; margin-top:2px; margin-left:15px;""></div>
            <div id=""conf2"" class=""conf"" style=""height:25px; width:154px; margin-top:2px; margin-left:169px;""></div>
            <div id=""conf3"" class=""conf"" style=""height:25px; width:154px; margin-top:2px; margin-left:323px;""></div>
            <div id=""conf4"" class=""conf"" style=""height:25px; width:154px; margin-top:2px; margin-left:477px;""></div>
          <div id=""conf5"" class=""conf"" style=""height:25px; width:154px; margin-top:2px; margin-left:631px;""></div>","5","","","","","","","","","","","","50",""
"","","","","","","","","","","","Summary Trial","356","2.1.0","181553","5ea824f580b9ef228f589930","Prolific","1","","180","","49","2","","e","313","365","","","","false","3.9499999999999997","1","","Test","52","","5"
"","","","","","","","","","","","html-keyboard-response","358","2.1.0","182560","5ea824f580b9ef228f589930","Prolific","1","","null","","50","2","<p style=""font-size: 70pt;"">+</p>","null","","","","","","","","","","","","",""
"","","","","","","","","","","","Stimulus Presentation","359","2.1.0","182867","5ea824f580b9ef228f589930","Prolific","1","","null","","50","2","","null","365","313","313","52","w","true","3.9499999999999997","","","","","",""
"","","","","","","","","","","","Stimulus Response","360","2.1.0","183066","5ea824f580b9ef228f589930","Prolific","1","","197","","50","2","","e","","","","","","","","0","","","","",""
"","","","","","","","","","","","Feedback","361","2.1.0","183571","5ea824f580b9ef228f589930","Prolific","1","","null","","50","2","","null","","","","","","","","","","","","",""
"","","","","","","","","","","","Confidence Rating","362","2.1.0","184858","5ea824f580b9ef228f589930","Prolific","1","","1285","","50","2","<h3>Rate your confidence:</h3>
            <div id=""conf1"" class=""conf"" style=""height:25px; width:154px; margin-top:2px; margin-left:15px;""></div>
            <div id=""conf2"" class=""conf"" style=""height:25px; width:154px; margin-top:2px; margin-left:169px;""></div>
            <div id=""conf3"" class=""conf"" style=""height:25px; width:154px; margin-top:2px; margin-left:323px;""></div>
            <div id=""conf4"" class=""conf"" style=""height:25px; width:154px; margin-top:2px; margin-left:477px;""></div>
          <div id=""conf5"" class=""conf"" style=""height:25px; width:154px; margin-top:2px; margin-left:631px;""></div>","5","","","","","","","","","","","","50",""
"","","","","","","","","","","","Summary Trial","363","2.1.0","184859","5ea824f580b9ef228f589930","Prolific","1","","197","","50","2","","e","365","313","","","","true","3.9499999999999997","0","","Test","52","","5"
"","","","","","","","","","","","html-keyboard-response","365","2.1.0","185869","5ea824f580b9ef228f589930","Prolific","1","","null","","51","2","<p style=""font-size: 70pt;"">+</p>","null","","","","","","","","","","","","",""
"","","","","","","","","","","","Stimulus Presentation","366","2.1.0","186182","5ea824f580b9ef228f589930","Prolific","1","","null","","51","2","","null","313","370","313","57","e","false","4.05","","","","","",""
"","","","","","","","","","","","Stimulus Response","367","2.1.0","186183","5ea824f580b9ef228f589930","Prolific","1","","1","","51","2","","w","","","","","","","","0","","","","",""
"","","","","","","","","","","","Feedback","368","2.1.0","186686","5ea824f580b9ef228f589930","Prolific","1","","null","","51","2","","null","","","","","","","","","","","","",""
"","","","","","","","","","","","Confidence Rating","369","2.1.0","187988","5ea824f580b9ef228f589930","Prolific","1","","1301","","51","2","<h3>Rate your confidence:</h3>
            <div id=""conf1"" class=""conf"" style=""height:25px; width:154px; margin-top:2px; margin-left:15px;""></div>
            <div id=""conf2"" class=""conf"" style=""height:25px; width:154px; margin-top:2px; margin-left:169px;""></div>
            <div id=""conf3"" class=""conf"" style=""height:25px; width:154px; margin-top:2px; margin-left:323px;""></div>
            <div id=""conf4"" class=""conf"" style=""height:25px; width:154px; margin-top:2px; margin-left:477px;""></div>
          <div id=""conf5"" class=""conf"" style=""height:25px; width:154px; margin-top:2px; margin-left:631px;""></div>","5","","","","","","","","","","","","50",""
"","","","","","","","","","","","Summary Trial","370","2.1.0","187989","5ea824f580b9ef228f589930","Prolific","1","","1","","51","2","","w","313","370","","","","false","4.05","0","","Test","57","","5"
"","","","","","","","","","","","html-keyboard-response","372","2.1.0","188995","5ea824f580b9ef228f589930","Prolific","1","","null","","52","2","<p style=""font-size: 70pt;"">+</p>","null","","","","","","","","","","","","",""
"","","","","","","","","","","","Stimulus Presentation","373","2.1.0","189304","5ea824f580b9ef228f589930","Prolific","1","","null","","52","2","","null","376","313","313","63","w","true","4.1499999999999995","","","","","",""
"","","","","","","","","","","","Stimulus Response","374","2.1.0","189380","5ea824f580b9ef228f589930","Prolific","1","","73","","52","2","","e","","","","","","","","0","","","","",""
"","","","","","","","","","","","Feedback","375","2.1.0","189884","5ea824f580b9ef228f589930","Prolific","1","","null","","52","2","","null","","","","","","","","","","","","",""
"","","","","","","","","","","","Confidence Rating","376","2.1.0","191282","5ea824f580b9ef228f589930","Prolific","1","","1395","","52","2","<h3>Rate your confidence:</h3>
            <div id=""conf1"" class=""conf"" style=""height:25px; width:154px; margin-top:2px; margin-left:15px;""></div>
            <div id=""conf2"" class=""conf"" style=""height:25px; width:154px; margin-top:2px; margin-left:169px;""></div>
            <div id=""conf3"" class=""conf"" style=""height:25px; width:154px; margin-top:2px; margin-left:323px;""></div>
            <div id=""conf4"" class=""conf"" style=""height:25px; width:154px; margin-top:2px; margin-left:477px;""></div>
          <div id=""conf5"" class=""conf"" style=""height:25px; width:154px; margin-top:2px; margin-left:631px;""></div>","3","","","","","","","","","","","","50",""
"","","","","","","","","","","","Summary Trial","377","2.1.0","191284","5ea824f580b9ef228f589930","Prolific","1","","73","","52","2","","e","376","313","","","","true","4.1499999999999995","0","","Test","63","","3"
"","","","","","","","","","","","html-keyboard-response","379","2.1.0","192296","5ea824f580b9ef228f589930","Prolific","1","","null","","53","2","<p style=""font-size: 70pt;"">+</p>","null","","","","","","","","","","","","",""
"","","","","","","","","","","","Stimulus Presentation","380","2.1.0","192606","5ea824f580b9ef228f589930","Prolific","1","","null","","53","2","","null","383","313","313","70","w","true","4.249999999999999","","","","","",""
"","","","","","","","","","","","Stimulus Response","381","2.1.0","192724","5ea824f580b9ef228f589930","Prolific","1","","114","","53","2","","w","","","","","","","","1","","","","",""
"","","","","","","","","","","","Feedback","382","2.1.0","193228","5ea824f580b9ef228f589930","Prolific","1","","null","","53","2","","null","","","","","","","","","","","","",""
"","","","","","","","","","","","Confidence Rating","383","2.1.0","194525","5ea824f580b9ef228f589930","Prolific","1","","1295","","53","2","<h3>Rate your confidence:</h3>
            <div id=""conf1"" class=""conf"" style=""height:25px; width:154px; margin-top:2px; margin-left:15px;""></div>
            <div id=""conf2"" class=""conf"" style=""height:25px; width:154px; margin-top:2px; margin-left:169px;""></div>
            <div id=""conf3"" class=""conf"" style=""height:25px; width:154px; margin-top:2px; margin-left:323px;""></div>
            <div id=""conf4"" class=""conf"" style=""height:25px; width:154px; margin-top:2px; margin-left:477px;""></div>
          <div id=""conf5"" class=""conf"" style=""height:25px; width:154px; margin-top:2px; margin-left:631px;""></div>","5","","","","","","","","","","","","50",""
"","","","","","","","","","","","Summary Trial","384","2.1.0","194527","5ea824f580b9ef228f589930","Prolific","1","","114","","53","2","","w","383","313","","","","true","4.249999999999999","1","","Test","70","","5"
"","","","","","","","","","","","html-keyboard-response","386","2.1.0","195533","5ea824f580b9ef228f589930","Prolific","1","","null","","54","2","<p style=""font-size: 70pt;"">+</p>","null","","","","","","","","","","","","",""
"","","","","","","","","","","","Stimulus Presentation","387","2.1.0","195858","5ea824f580b9ef228f589930","Prolific","1","","null","","54","2","","null","313","383","313","70","e","false","4.249999999999999","","","","","",""
"","","","","","","","","","","","Stimulus Response","388","2.1.0","195974","5ea824f580b9ef228f589930","Prolific","1","","113","","54","2","","e","","","","","","","","1","","","","",""
"","","","","","","","","","","","Feedback","389","2.1.0","196478","5ea824f580b9ef228f589930","Prolific","1","","null","","54","2","","null","","","","","","","","","","","","",""
"","","","","","","","","","","","Confidence Rating","390","2.1.0","198039","5ea824f580b9ef228f589930","Prolific","1","","1559","","54","2","<h3>Rate your confidence:</h3>
            <div id=""conf1"" class=""conf"" style=""height:25px; width:154px; margin-top:2px; margin-left:15px;""></div>
            <div id=""conf2"" class=""conf"" style=""height:25px; width:154px; margin-top:2px; margin-left:169px;""></div>
            <div id=""conf3"" class=""conf"" style=""height:25px; width:154px; margin-top:2px; margin-left:323px;""></div>
            <div id=""conf4"" class=""conf"" style=""height:25px; width:154px; margin-top:2px; margin-left:477px;""></div>
          <div id=""conf5"" class=""conf"" style=""height:25px; width:154px; margin-top:2px; margin-left:631px;""></div>","5","","","","","","","","","","","","50",""
"","","","","","","","","","","","Summary Trial","391","2.1.0","198041","5ea824f580b9ef228f589930","Prolific","1","","113","","54","2","","e","313","383","","","","false","4.249999999999999","1","","Test","70","","5"
"","","","","","","","","","","","html-keyboard-response","393","2.1.0","199045","5ea824f580b9ef228f589930","Prolific","1","","null","","55","2","<p style=""font-size: 70pt;"">+</p>","null","","","","","","","","","","","","",""
"","","","","","","","","","","","Stimulus Presentation","394","2.1.0","199353","5ea824f580b9ef228f589930","Prolific","1","","null","","55","2","","null","313","376","313","63","e","false","4.1499999999999995","","","","","",""
"","","","","","","","","","","","Stimulus Response","395","2.1.0","199495","5ea824f580b9ef228f589930","Prolific","1","","142","","55","2","","e","","","","","","","","1","","","","",""
"","","","","","","","","","","","Feedback","396","2.1.0","199997","5ea824f580b9ef228f589930","Prolific","1","","null","","55","2","","null","","","","","","","","","","","","",""
"","","","","","","","","","","","Confidence Rating","397","2.1.0","201164","5ea824f580b9ef228f589930","Prolific","1","","1166","","55","2","<h3>Rate your confidence:</h3>
            <div id=""conf1"" class=""conf"" style=""height:25px; width:154px; margin-top:2px; margin-left:15px;""></div>
            <div id=""conf2"" class=""conf"" style=""height:25px; width:154px; margin-top:2px; margin-left:169px;""></div>
            <div id=""conf3"" class=""conf"" style=""height:25px; width:154px; margin-top:2px; margin-left:323px;""></div>
            <div id=""conf4"" class=""conf"" style=""height:25px; width:154px; margin-top:2px; margin-left:477px;""></div>
          <div id=""conf5"" class=""conf"" style=""height:25px; width:154px; margin-top:2px; margin-left:631px;""></div>","5","","","","","","","","","","","","50",""
"","","","","","","","","","","","Summary Trial","398","2.1.0","201166","5ea824f580b9ef228f589930","Prolific","1","","142","","55","2","","e","313","376","","","","false","4.1499999999999995","1","","Test","63","","5"
"","","","","","","","","","","","html-keyboard-response","400","2.1.0","202175","5ea824f580b9ef228f589930","Prolific","1","","null","","56","2","<p style=""font-size: 70pt;"">+</p>","null","","","","","","","","","","","","",""
"","","","","","","","","","","","Stimulus Presentation","401","2.1.0","202485","5ea824f580b9ef228f589930","Prolific","1","","null","","56","2","","null","376","313","313","63","w","true","4.1499999999999995","","","","","",""
"","","","","","","","","","","","Stimulus Response","402","2.1.0","202639","5ea824f580b9ef228f589930","Prolific","1","","153","","56","2","","e","","","","","","","","0","","","","",""
"","","","","","","","","","","","Feedback","403","2.1.0","203143","5ea824f580b9ef228f589930","Prolific","1","","null","","56","2","","null","","","","","","","","","","","","",""
"","","","","","","","","","","","Confidence Rating","404","2.1.0","204559","5ea824f580b9ef228f589930","Prolific","1","","1414","","56","2","<h3>Rate your confidence:</h3>
            <div id=""conf1"" class=""conf"" style=""height:25px; width:154px; margin-top:2px; margin-left:15px;""></div>
            <div id=""conf2"" class=""conf"" style=""height:25px; width:154px; margin-top:2px; margin-left:169px;""></div>
            <div id=""conf3"" class=""conf"" style=""height:25px; width:154px; margin-top:2px; margin-left:323px;""></div>
            <div id=""conf4"" class=""conf"" style=""height:25px; width:154px; margin-top:2px; margin-left:477px;""></div>
          <div id=""conf5"" class=""conf"" style=""height:25px; width:154px; margin-top:2px; margin-left:631px;""></div>","3","","","","","","","","","","","","50",""
"","","","","","","","","","","","Summary Trial","405","2.1.0","204560","5ea824f580b9ef228f589930","Prolific","1","","153","","56","2","","e","376","313","","","","true","4.1499999999999995","0","","Test","63","","3"
"","","","","","","","","","","","html-keyboard-response","407","2.1.0","205567","5ea824f580b9ef228f589930","Prolific","1","","null","","57","2","<p style=""font-size: 70pt;"">+</p>","null","","","","","","","","","","","","",""
"","","","","","","","","","","","Stimulus Presentation","408","2.1.0","205875","5ea824f580b9ef228f589930","Prolific","1","","null","","57","2","","null","383","313","313","70","w","true","4.249999999999999","","","","","",""
"","","","","","","","","","","","Stimulus Response","409","2.1.0","206063","5ea824f580b9ef228f589930","Prolific","1","","187","","57","2","","w","","","","","","","","1","","","","",""
"","","","","","","","","","","","Feedback","410","2.1.0","206566","5ea824f580b9ef228f589930","Prolific","1","","null","","57","2","","null","","","","","","","","","","","","",""
"","","","","","","","","","","","Confidence Rating","411","2.1.0","207621","5ea824f580b9ef228f589930","Prolific","1","","1053","","57","2","<h3>Rate your confidence:</h3>
            <div id=""conf1"" class=""conf"" style=""height:25px; width:154px; margin-top:2px; margin-left:15px;""></div>
            <div id=""conf2"" class=""conf"" style=""height:25px; width:154px; margin-top:2px; margin-left:169px;""></div>
            <div id=""conf3"" class=""conf"" style=""height:25px; width:154px; margin-top:2px; margin-left:323px;""></div>
            <div id=""conf4"" class=""conf"" style=""height:25px; width:154px; margin-top:2px; margin-left:477px;""></div>
          <div id=""conf5"" class=""conf"" style=""height:25px; width:154px; margin-top:2px; margin-left:631px;""></div>","3","","","","","","","","","","","","50",""
"","","","","","","","","","","","Summary Trial","412","2.1.0","207622","5ea824f580b9ef228f589930","Prolific","1","","187","","57","2","","w","383","313","","","","true","4.249999999999999","1","","Test","70","","3"
"","","","","","","","","","","","html-keyboard-response","414","2.1.0","208629","5ea824f580b9ef228f589930","Prolific","1","","null","","58","2","<p style=""font-size: 70pt;"">+</p>","null","","","","","","","","","","","","",""
"","","","","","","","","","","","Stimulus Presentation","415","2.1.0","208936","5ea824f580b9ef228f589930","Prolific","1","","null","","58","2","","null","313","383","313","70","e","false","4.249999999999999","","","","","",""
"","","","","","","","","","","","Stimulus Response","416","2.1.0","209137","5ea824f580b9ef228f589930","Prolific","1","","199","","58","2","","e","","","","","","","","1","","","","",""
"","","","","","","","","","","","Feedback","417","2.1.0","209643","5ea824f580b9ef228f589930","Prolific","1","","null","","58","2","","null","","","","","","","","","","","","",""
"","","","","","","","","","","","Confidence Rating","418","2.1.0","210605","5ea824f580b9ef228f589930","Prolific","1","","958","","58","2","<h3>Rate your confidence:</h3>
            <div id=""conf1"" class=""conf"" style=""height:25px; width:154px; margin-top:2px; margin-left:15px;""></div>
            <div id=""conf2"" class=""conf"" style=""height:25px; width:154px; margin-top:2px; margin-left:169px;""></div>
            <div id=""conf3"" class=""conf"" style=""height:25px; width:154px; margin-top:2px; margin-left:323px;""></div>
            <div id=""conf4"" class=""conf"" style=""height:25px; width:154px; margin-top:2px; margin-left:477px;""></div>
          <div id=""conf5"" class=""conf"" style=""height:25px; width:154px; margin-top:2px; margin-left:631px;""></div>","3","","","","","","","","","","","","50",""
"","","","","","","","","","","","Summary Trial","419","2.1.0","210606","5ea824f580b9ef228f589930","Prolific","1","","199","","58","2","","e","313","383","","","","false","4.249999999999999","1","","Test","70","","3"
"","","","","","","","","","","","html-keyboard-response","421","2.1.0","211613","5ea824f580b9ef228f589930","Prolific","1","","null","","59","2","<p style=""font-size: 70pt;"">+</p>","null","","","","","","","","","","","","",""
"","","","","","","","","","","","Stimulus Presentation","422","2.1.0","211920","5ea824f580b9ef228f589930","Prolific","1","","null","","59","2","","null","376","313","313","63","w","true","4.1499999999999995","","","","","",""
"","","","","","","","","","","","Stimulus Response","423","2.1.0","212096","5ea824f580b9ef228f589930","Prolific","1","","175","","59","2","","w","","","","","","","","1","","","","",""
"","","","","","","","","","","","Feedback","424","2.1.0","212602","5ea824f580b9ef228f589930","Prolific","1","","null","","59","2","","null","","","","","","","","","","","","",""
"","","","","","","","","","","","Confidence Rating","425","2.1.0","214145","5ea824f580b9ef228f589930","Prolific","1","","1542","","59","2","<h3>Rate your confidence:</h3>
            <div id=""conf1"" class=""conf"" style=""height:25px; width:154px; margin-top:2px; margin-left:15px;""></div>
            <div id=""conf2"" class=""conf"" style=""height:25px; width:154px; margin-top:2px; margin-left:169px;""></div>
            <div id=""conf3"" class=""conf"" style=""height:25px; width:154px; margin-top:2px; margin-left:323px;""></div>
            <div id=""conf4"" class=""conf"" style=""height:25px; width:154px; margin-top:2px; margin-left:477px;""></div>
          <div id=""conf5"" class=""conf"" style=""height:25px; width:154px; margin-top:2px; margin-left:631px;""></div>","3","","","","","","","","","","","","50",""
"","","","","","","","","","","","Summary Trial","426","2.1.0","214148","5ea824f580b9ef228f589930","Prolific","1","","175","","59","2","","w","376","313","","","","true","4.1499999999999995","1","","Test","63","","3"
"","","","","","","","","","","","html-keyboard-response","428","2.1.0","215153","5ea824f580b9ef228f589930","Prolific","1","","null","","60","2","<p style=""font-size: 70pt;"">+</p>","null","","","","","","","","","","","","",""
"","","","","","","","","","","","Stimulus Presentation","429","2.1.0","215461","5ea824f580b9ef228f589930","Prolific","1","","null","","60","2","","null","313","376","313","63","e","false","4.1499999999999995","","","","","",""
"","","","","","","","","","","","Stimulus Response","430","2.1.0","215523","5ea824f580b9ef228f589930","Prolific","1","","61","","60","2","","e","","","","","","","","1","","","","",""
"","","","","","","","","","","","Feedback","431","2.1.0","216028","5ea824f580b9ef228f589930","Prolific","1","","null","","60","2","","null","","","","","","","","","","","","",""
"","","","","","","","","","","","Confidence Rating","432","2.1.0","218450","5ea824f580b9ef228f589930","Prolific","1","","2421","","60","2","<h3>Rate your confidence:</h3>
            <div id=""conf1"" class=""conf"" style=""height:25px; width:154px; margin-top:2px; margin-left:15px;""></div>
            <div id=""conf2"" class=""conf"" style=""height:25px; width:154px; margin-top:2px; margin-left:169px;""></div>
            <div id=""conf3"" class=""conf"" style=""height:25px; width:154px; margin-top:2px; margin-left:323px;""></div>
            <div id=""conf4"" class=""conf"" style=""height:25px; width:154px; margin-top:2px; margin-left:477px;""></div>
          <div id=""conf5"" class=""conf"" style=""height:25px; width:154px; margin-top:2px; margin-left:631px;""></div>","3","","","","","","","","","","","","50",""
"","","","","","","","","","","","Summary Trial","433","2.1.0","218451","5ea824f580b9ef228f589930","Prolific","1","","61","","60","2","","e","313","376","","","","false","4.1499999999999995","1","","Test","63","","3"
"","","","","","","","","","","","html-keyboard-response","435","2.1.0","219454","5ea824f580b9ef228f589930","Prolific","1","","null","","61","2","<p style=""font-size: 70pt;"">+</p>","null","","","","","","","","","","","","",""
"","","","","","","","","","","","Stimulus Presentation","436","2.1.0","219762","5ea824f580b9ef228f589930","Prolific","1","","null","","61","2","","null","313","370","313","57","e","false","4.05","","","","","",""
"","","","","","","","","","","","Stimulus Response","437","2.1.0","219833","5ea824f580b9ef228f589930","Prolific","1","","70","","61","2","","e","","","","","","","","1","","","","",""
"","","","","","","","","","","","Feedback","438","2.1.0","220337","5ea824f580b9ef228f589930","Prolific","1","","null","","61","2","","null","","","","","","","","","","","","",""
"","","","","","","","","","","","Confidence Rating","439","2.1.0","221491","5ea824f580b9ef228f589930","Prolific","1","","1151","","61","2","<h3>Rate your confidence:</h3>
            <div id=""conf1"" class=""conf"" style=""height:25px; width:154px; margin-top:2px; margin-left:15px;""></div>
            <div id=""conf2"" class=""conf"" style=""height:25px; width:154px; margin-top:2px; margin-left:169px;""></div>
            <div id=""conf3"" class=""conf"" style=""height:25px; width:154px; margin-top:2px; margin-left:323px;""></div>
            <div id=""conf4"" class=""conf"" style=""height:25px; width:154px; margin-top:2px; margin-left:477px;""></div>
          <div id=""conf5"" class=""conf"" style=""height:25px; width:154px; margin-top:2px; margin-left:631px;""></div>","3","","","","","","","","","","","","50",""
"","","","","","","","","","","","Summary Trial","440","2.1.0","221493","5ea824f580b9ef228f589930","Prolific","1","","70","","61","2","","e","313","370","","","","false","4.05","1","","Test","57","","3"
"","","","","","","","","","","","html-keyboard-response","442","2.1.0","222616","5ea824f580b9ef228f589930","Prolific","1","","null","","62","2","<p style=""font-size: 70pt;"">+</p>","null","","","","","","","","","","","","",""
"","","","","","","","","","","","Stimulus Presentation","443","2.1.0","222924","5ea824f580b9ef228f589930","Prolific","1","","null","","62","2","","null","370","313","313","57","w","true","4.05","","","","","",""
"","","","","","","","","","","","Stimulus Response","444","2.1.0","223061","5ea824f580b9ef228f589930","Prolific","1","","136","","62","2","","e","","","","","","","","0","","","","",""
"","","","","","","","","","","","Feedback","445","2.1.0","223563","5ea824f580b9ef228f589930","Prolific","1","","null","","62","2","","null","","","","","","","","","","","","",""
