"width","height","webaudio","browser","browser_version","mobile","os","fullscreen","vsync_rate","webcam","microphone","trial_type","trial_index","plugin_version","time_elapsed","participant_id","Source","condition","success","rt","view_history","trialnum","blocknum","stimulus","response","leftDots","rightDots","baseline","increment","correct_key","target_left","current_log","correct","value","phase","dot_difference","slider_start","confidence"
"1280","585","true","chrome","135.0.0","false","Windows 10","true","60.73","true","true","browser-check","0","2.1.0","997","65b7b0e4e6fa7d632205b4b6","Prolific","1","","","","","","","","","","","","","","","","","","","",""
"","","","","","","","","","","","fullscreen","1","2.1.0","5237","65b7b0e4e6fa7d632205b4b6","Prolific","1","true","3223","","","","","","","","","","","","","","","","","",""
"","","","","","","","","","","","instructions","2","2.1.0","13851","65b7b0e4e6fa7d632205b4b6","Prolific","1","","8612","[{""page_index"":0,""viewing_time"":8612}]","","","","","","","","","","","","","","","","",""
"","","","","","","","","","","","instructions","5","2.1.0","58910","65b7b0e4e6fa7d632205b4b6","Prolific","1","","45058","[{""page_index"":0,""viewing_time"":41190},{""page_index"":1,""viewing_time"":3868}]","","","","","","","","","","","","","","","","",""
"","","","","","","","","","","","html-keyboard-response","7","2.1.0","59918","65b7b0e4e6fa7d632205b4b6","Prolific","1","","null","","1","1","<p style=""font-size: 70pt;"">+</p>","null","","","","","","","","","","","","",""
"","","","","","","","","","","","Stimulus Presentation","8","2.1.0","60234","65b7b0e4e6fa7d632205b4b6","Prolific","1","","null","","1","1","","null","313","383","313","70","e","false","4.25","","","","","",""
"","","","","","","","","","","","Stimulus Response","9","2.1.0","61845","65b7b0e4e6fa7d632205b4b6","Prolific","1","","1609","","1","1","","e","","","","","","","","1","","","","",""
"","","","","","","","","","","","Feedback","10","2.1.0","62364","65b7b0e4e6fa7d632205b4b6","Prolific","1","","null","","1","1","","null","","","","","","","","","","","","",""
"","","","","","","","","","","","Summary Trial","12","2.1.0","62365","65b7b0e4e6fa7d632205b4b6","Prolific","1","","1609","","1","1","","e","313","383","","","","false","4.25","1","","Practice","70","",""
"","","","","","","","","","","","html-keyboard-response","14","2.1.0","63372","65b7b0e4e6fa7d632205b4b6","Prolific","1","","null","","2","1","<p style=""font-size: 70pt;"">+</p>","null","","","","","","","","","","","","",""
"","","","","","","","","","","","Stimulus Presentation","15","2.1.0","63685","65b7b0e4e6fa7d632205b4b6","Prolific","1","","null","","2","1","","null","383","313","313","70","w","true","4.25","","","","","",""
"","","","","","","","","","","","Stimulus Response","16","2.1.0","64822","65b7b0e4e6fa7d632205b4b6","Prolific","1","","1136","","2","1","","w","","","","","","","","1","","","","",""
"","","","","","","","","","","","Feedback","17","2.1.0","65328","65b7b0e4e6fa7d632205b4b6","Prolific","1","","null","","2","1","","null","","","","","","","","","","","","",""
"","","","","","","","","","","","Summary Trial","19","2.1.0","65328","65b7b0e4e6fa7d632205b4b6","Prolific","1","","1136","","2","1","","w","383","313","","","","true","4.25","1","","Practice","70","",""
"","","","","","","","","","","","html-keyboard-response","21","2.1.0","66332","65b7b0e4e6fa7d632205b4b6","Prolific","1","","null","","3","1","<p style=""font-size: 70pt;"">+</p>","null","","","","","","","","","","","","",""
"","","","","","","","","","","","Stimulus Presentation","22","2.1.0","66649","65b7b0e4e6fa7d632205b4b6","Prolific","1","","null","","3","1","","null","360","313","313","47","w","true","3.85","","","","","",""
"","","","","","","","","","","","Stimulus Response","23","2.1.0","67411","65b7b0e4e6fa7d632205b4b6","Prolific","1","","761","","3","1","","w","","","","","","","","1","","","","",""
"","","","","","","","","","","","Feedback","24","2.1.0","67923","65b7b0e4e6fa7d632205b4b6","Prolific","1","","null","","3","1","","null","","","","","","","","","","","","",""
"","","","","","","","","","","","Summary Trial","26","2.1.0","67924","65b7b0e4e6fa7d632205b4b6","Prolific","1","","761","","3","1","","w","360","313","","","","true","3.85","1","","Practice","47","",""
"","","","","","","","","","","","html-keyboard-response","28","2.1.0","68928","65b7b0e4e6fa7d632205b4b6","Prolific","1","","null","","4","1","<p style=""font-size: 70pt;"">+</p>","null","","","","","","","","","","","","",""
"","","","","","","","","","","","Stimulus Presentation","29","2.1.0","69234","65b7b0e4e6fa7d632205b4b6","Prolific","1","","null","","4","1","","null","313","360","313","47","e","false","3.85","","","","","",""
"","","","","","","","","","","","Stimulus Response","30","2.1.0","69863","65b7b0e4e6fa7d632205b4b6","Prolific","1","","628","","4","1","","e","","","","","","","","1","","","","",""
"","","","","","","","","","","","Feedback","31","2.1.0","70372","65b7b0e4e6fa7d632205b4b6","Prolific","1","","null","","4","1","","null","","","","","","","","","","","","",""
"","","","","","","","","","","","Summary Trial","33","2.1.0","70372","65b7b0e4e6fa7d632205b4b6","Prolific","1","","628","","4","1","","e","313","360","","","","false","3.85","1","","Practice","47","",""
"","","","","","","","","","","","html-keyboard-response","35","2.1.0","71378","65b7b0e4e6fa7d632205b4b6","Prolific","1","","null","","5","1","<p style=""font-size: 70pt;"">+</p>","null","","","","","","","","","","","","",""
"","","","","","","","","","","","Stimulus Presentation","36","2.1.0","71683","65b7b0e4e6fa7d632205b4b6","Prolific","1","","null","","5","1","","null","313","345","313","32","e","false","3.45","","","","","",""
"","","","","","","","","","","","Stimulus Response","37","2.1.0","72144","65b7b0e4e6fa7d632205b4b6","Prolific","1","","460","","5","1","","w","","","","","","","","0","","","","",""
"","","","","","","","","","","","Feedback","38","2.1.0","72658","65b7b0e4e6fa7d632205b4b6","Prolific","1","","null","","5","1","","null","","","","","","","","","","","","",""
"","","","","","","","","","","","Summary Trial","40","2.1.0","72658","65b7b0e4e6fa7d632205b4b6","Prolific","1","","460","","5","1","","w","313","345","","","","false","3.45","0","","Practice","32","",""
"","","","","","","","","","","","html-keyboard-response","42","2.1.0","73661","65b7b0e4e6fa7d632205b4b6","Prolific","1","","null","","6","1","<p style=""font-size: 70pt;"">+</p>","null","","","","","","","","","","","","",""
"","","","","","","","","","","","Stimulus Presentation","43","2.1.0","73967","65b7b0e4e6fa7d632205b4b6","Prolific","1","","null","","6","1","","null","360","313","313","47","w","true","3.85","","","","","",""
"","","","","","","","","","","","Stimulus Response","44","2.1.0","74510","65b7b0e4e6fa7d632205b4b6","Prolific","1","","542","","6","1","","e","","","","","","","","0","","","","",""
"","","","","","","","","","","","Feedback","45","2.1.0","75021","65b7b0e4e6fa7d632205b4b6","Prolific","1","","null","","6","1","","null","","","","","","","","","","","","",""
"","","","","","","","","","","","Summary Trial","47","2.1.0","75021","65b7b0e4e6fa7d632205b4b6","Prolific","1","","542","","6","1","","e","360","313","","","","true","3.85","0","","Practice","47","",""
"","","","","","","","","","","","html-keyboard-response","49","2.1.0","76031","65b7b0e4e6fa7d632205b4b6","Prolific","1","","null","","7","1","<p style=""font-size: 70pt;"">+</p>","null","","","","","","","","","","","","",""
"","","","","","","","","","","","Stimulus Presentation","50","2.1.0","76333","65b7b0e4e6fa7d632205b4b6","Prolific","1","","null","","7","1","","null","313","370","313","57","e","false","4.05","","","","","",""
"","","","","","","","","","","","Stimulus Response","51","2.1.0","76923","65b7b0e4e6fa7d632205b4b6","Prolific","1","","589","","7","1","","e","","","","","","","","1","","","","",""
"","","","","","","","","","","","Feedback","52","2.1.0","77439","65b7b0e4e6fa7d632205b4b6","Prolific","1","","null","","7","1","","null","","","","","","","","","","","","",""
"","","","","","","","","","","","Summary Trial","54","2.1.0","77440","65b7b0e4e6fa7d632205b4b6","Prolific","1","","589","","7","1","","e","313","370","","","","false","4.05","1","","Practice","57","",""
"","","","","","","","","","","","html-keyboard-response","56","2.1.0","78445","65b7b0e4e6fa7d632205b4b6","Prolific","1","","null","","8","1","<p style=""font-size: 70pt;"">+</p>","null","","","","","","","","","","","","",""
"","","","","","","","","","","","Stimulus Presentation","57","2.1.0","78751","65b7b0e4e6fa7d632205b4b6","Prolific","1","","null","","8","1","","null","370","313","313","57","w","true","4.05","","","","","",""
"","","","","","","","","","","","Stimulus Response","58","2.1.0","79261","65b7b0e4e6fa7d632205b4b6","Prolific","1","","510","","8","1","","w","","","","","","","","1","","","","",""
"","","","","","","","","","","","Feedback","59","2.1.0","79771","65b7b0e4e6fa7d632205b4b6","Prolific","1","","null","","8","1","","null","","","","","","","","","","","","",""
"","","","","","","","","","","","Summary Trial","61","2.1.0","79772","65b7b0e4e6fa7d632205b4b6","Prolific","1","","510","","8","1","","w","370","313","","","","true","4.05","1","","Practice","57","",""
"","","","","","","","","","","","html-keyboard-response","63","2.1.0","80778","65b7b0e4e6fa7d632205b4b6","Prolific","1","","null","","9","1","<p style=""font-size: 70pt;"">+</p>","null","","","","","","","","","","","","",""
"","","","","","","","","","","","Stimulus Presentation","64","2.1.0","81084","65b7b0e4e6fa7d632205b4b6","Prolific","1","","null","","9","1","","null","313","360","313","47","e","false","3.8499999999999996","","","","","",""
"","","","","","","","","","","","Stimulus Response","65","2.1.0","81384","65b7b0e4e6fa7d632205b4b6","Prolific","1","","299","","9","1","","e","","","","","","","","1","","","","",""
"","","","","","","","","","","","Feedback","66","2.1.0","81889","65b7b0e4e6fa7d632205b4b6","Prolific","1","","null","","9","1","","null","","","","","","","","","","","","",""
"","","","","","","","","","","","Summary Trial","68","2.1.0","81889","65b7b0e4e6fa7d632205b4b6","Prolific","1","","299","","9","1","","e","313","360","","","","false","3.8499999999999996","1","","Practice","47","",""
"","","","","","","","","","","","html-keyboard-response","70","2.1.0","82896","65b7b0e4e6fa7d632205b4b6","Prolific","1","","null","","10","1","<p style=""font-size: 70pt;"">+</p>","null","","","","","","","","","","","","",""
"","","","","","","","","","","","Stimulus Presentation","71","2.1.0","83201","65b7b0e4e6fa7d632205b4b6","Prolific","1","","null","","10","1","","null","360","313","313","47","w","true","3.8499999999999996","","","","","",""
"","","","","","","","","","","","Stimulus Response","72","2.1.0","83606","65b7b0e4e6fa7d632205b4b6","Prolific","1","","404","","10","1","","w","","","","","","","","1","","","","",""
"","","","","","","","","","","","Feedback","73","2.1.0","84121","65b7b0e4e6fa7d632205b4b6","Prolific","1","","null","","10","1","","null","","","","","","","","","","","","",""
"","","","","","","","","","","","Summary Trial","75","2.1.0","84122","65b7b0e4e6fa7d632205b4b6","Prolific","1","","404","","10","1","","w","360","313","","","","true","3.8499999999999996","1","","Practice","47","",""
"","","","","","","","","","","","html-keyboard-response","77","2.1.0","85132","65b7b0e4e6fa7d632205b4b6","Prolific","1","","null","","11","1","<p style=""font-size: 70pt;"">+</p>","null","","","","","","","","","","","","",""
"","","","","","","","","","","","Stimulus Presentation","78","2.1.0","85448","65b7b0e4e6fa7d632205b4b6","Prolific","1","","null","","11","1","","null","313","351","313","38","e","false","3.6499999999999995","","","","","",""
"","","","","","","","","","","","Stimulus Response","79","2.1.0","85619","65b7b0e4e6fa7d632205b4b6","Prolific","1","","170","","11","1","","e","","","","","","","","1","","","","",""
"","","","","","","","","","","","Feedback","80","2.1.0","86123","65b7b0e4e6fa7d632205b4b6","Prolific","1","","null","","11","1","","null","","","","","","","","","","","","",""
"","","","","","","","","","","","Summary Trial","82","2.1.0","86123","65b7b0e4e6fa7d632205b4b6","Prolific","1","","170","","11","1","","e","313","351","","","","false","3.6499999999999995","1","","Practice","38","",""
"","","","","","","","","","","","html-keyboard-response","84","2.1.0","87126","65b7b0e4e6fa7d632205b4b6","Prolific","1","","null","","12","1","<p style=""font-size: 70pt;"">+</p>","null","","","","","","","","","","","","",""
"","","","","","","","","","","","Stimulus Presentation","85","2.1.0","87435","65b7b0e4e6fa7d632205b4b6","Prolific","1","","null","","12","1","","null","351","313","313","38","w","true","3.6499999999999995","","","","","",""
"","","","","","","","","","","","Stimulus Response","86","2.1.0","87866","65b7b0e4e6fa7d632205b4b6","Prolific","1","","430","","12","1","","w","","","","","","","","1","","","","",""
"","","","","","","","","","","","Feedback","87","2.1.0","88374","65b7b0e4e6fa7d632205b4b6","Prolific","1","","null","","12","1","","null","","","","","","","","","","","","",""
"","","","","","","","","","","","Summary Trial","89","2.1.0","88374","65b7b0e4e6fa7d632205b4b6","Prolific","1","","430","","12","1","","w","351","313","","","","true","3.6499999999999995","1","","Practice","38","",""
"","","","","","","","","","","","html-keyboard-response","91","2.1.0","89383","65b7b0e4e6fa7d632205b4b6","Prolific","1","","null","","13","1","<p style=""font-size: 70pt;"">+</p>","null","","","","","","","","","","","","",""
"","","","","","","","","","","","Stimulus Presentation","92","2.1.0","89687","65b7b0e4e6fa7d632205b4b6","Prolific","1","","null","","13","1","","null","313","348","313","35","e","false","3.5499999999999994","","","","","",""
"","","","","","","","","","","","Stimulus Response","93","2.1.0","90079","65b7b0e4e6fa7d632205b4b6","Prolific","1","","392","","13","1","","w","","","","","","","","0","","","","",""
"","","","","","","","","","","","Feedback","94","2.1.0","90594","65b7b0e4e6fa7d632205b4b6","Prolific","1","","null","","13","1","","null","","","","","","","","","","","","",""
"","","","","","","","","","","","Summary Trial","96","2.1.0","90594","65b7b0e4e6fa7d632205b4b6","Prolific","1","","392","","13","1","","w","313","348","","","","false","3.5499999999999994","0","","Practice","35","",""
"","","","","","","","","","","","html-keyboard-response","98","2.1.0","91596","65b7b0e4e6fa7d632205b4b6","Prolific","1","","null","","14","1","<p style=""font-size: 70pt;"">+</p>","null","","","","","","","","","","","","",""
"","","","","","","","","","","","Stimulus Presentation","99","2.1.0","91901","65b7b0e4e6fa7d632205b4b6","Prolific","1","","null","","14","1","","null","351","313","313","38","w","true","3.6499999999999995","","","","","",""
"","","","","","","","","","","","Stimulus Response","100","2.1.0","92359","65b7b0e4e6fa7d632205b4b6","Prolific","1","","457","","14","1","","e","","","","","","","","0","","","","",""
"","","","","","","","","","","","Feedback","101","2.1.0","92874","65b7b0e4e6fa7d632205b4b6","Prolific","1","","null","","14","1","","null","","","","","","","","","","","","",""
"","","","","","","","","","","","Summary Trial","103","2.1.0","92875","65b7b0e4e6fa7d632205b4b6","Prolific","1","","457","","14","1","","e","351","313","","","","true","3.6499999999999995","0","","Practice","38","",""
"","","","","","","","","","","","html-keyboard-response","105","2.1.0","93878","65b7b0e4e6fa7d632205b4b6","Prolific","1","","null","","15","1","<p style=""font-size: 70pt;"">+</p>","null","","","","","","","","","","","","",""
"","","","","","","","","","","","Stimulus Presentation","106","2.1.0","94182","65b7b0e4e6fa7d632205b4b6","Prolific","1","","null","","15","1","","null","356","313","313","43","w","true","3.7499999999999996","","","","","",""
"","","","","","","","","","","","Stimulus Response","107","2.1.0","94909","65b7b0e4e6fa7d632205b4b6","Prolific","1","","726","","15","1","","w","","","","","","","","1","","","","",""
"","","","","","","","","","","","Feedback","108","2.1.0","95417","65b7b0e4e6fa7d632205b4b6","Prolific","1","","null","","15","1","","null","","","","","","","","","","","","",""
"","","","","","","","","","","","Summary Trial","110","2.1.0","95418","65b7b0e4e6fa7d632205b4b6","Prolific","1","","726","","15","1","","w","356","313","","","","true","3.7499999999999996","1","","Practice","43","",""
"","","","","","","","","","","","html-keyboard-response","112","2.1.0","96421","65b7b0e4e6fa7d632205b4b6","Prolific","1","","null","","16","1","<p style=""font-size: 70pt;"">+</p>","null","","","","","","","","","","","","",""
"","","","","","","","","","","","Stimulus Presentation","113","2.1.0","96735","65b7b0e4e6fa7d632205b4b6","Prolific","1","","null","","16","1","","null","313","356","313","43","e","false","3.7499999999999996","","","","","",""
"","","","","","","","","","","","Stimulus Response","114","2.1.0","96944","65b7b0e4e6fa7d632205b4b6","Prolific","1","","208","","16","1","","e","","","","","","","","1","","","","",""
"","","","","","","","","","","","Feedback","115","2.1.0","97453","65b7b0e4e6fa7d632205b4b6","Prolific","1","","null","","16","1","","null","","","","","","","","","","","","",""
"","","","","","","","","","","","Summary Trial","117","2.1.0","97454","65b7b0e4e6fa7d632205b4b6","Prolific","1","","208","","16","1","","e","313","356","","","","false","3.7499999999999996","1","","Practice","43","",""
"","","","","","","","","","","","html-keyboard-response","119","2.1.0","98470","65b7b0e4e6fa7d632205b4b6","Prolific","1","","null","","17","1","<p style=""font-size: 70pt;"">+</p>","null","","","","","","","","","","","","",""
"","","","","","","","","","","","Stimulus Presentation","120","2.1.0","98774","65b7b0e4e6fa7d632205b4b6","Prolific","1","","null","","17","1","","null","313","351","313","38","e","false","3.6499999999999995","","","","","",""
"","","","","","","","","","","","Stimulus Response","121","2.1.0","99210","65b7b0e4e6fa7d632205b4b6","Prolific","1","","435","","17","1","","e","","","","","","","","1","","","","",""
"","","","","","","","","","","","Feedback","122","2.1.0","99716","65b7b0e4e6fa7d632205b4b6","Prolific","1","","null","","17","1","","null","","","","","","","","","","","","",""
"","","","","","","","","","","","Summary Trial","124","2.1.0","99717","65b7b0e4e6fa7d632205b4b6","Prolific","1","","435","","17","1","","e","313","351","","","","false","3.6499999999999995","1","","Practice","38","",""
"","","","","","","","","","","","html-keyboard-response","126","2.1.0","100725","65b7b0e4e6fa7d632205b4b6","Prolific","1","","null","","18","1","<p style=""font-size: 70pt;"">+</p>","null","","","","","","","","","","","","",""
"","","","","","","","","","","","Stimulus Presentation","127","2.1.0","101041","65b7b0e4e6fa7d632205b4b6","Prolific","1","","null","","18","1","","null","351","313","313","38","w","true","3.6499999999999995","","","","","",""
"","","","","","","","","","","","Stimulus Response","128","2.1.0","101356","65b7b0e4e6fa7d632205b4b6","Prolific","1","","314","","18","1","","w","","","","","","","","1","","","","",""
"","","","","","","","","","","","Feedback","129","2.1.0","101858","65b7b0e4e6fa7d632205b4b6","Prolific","1","","null","","18","1","","null","","","","","","","","","","","","",""
"","","","","","","","","","","","Summary Trial","131","2.1.0","101858","65b7b0e4e6fa7d632205b4b6","Prolific","1","","314","","18","1","","w","351","313","","","","true","3.6499999999999995","1","","Practice","38","",""
"","","","","","","","","","","","html-keyboard-response","133","2.1.0","102864","65b7b0e4e6fa7d632205b4b6","Prolific","1","","null","","19","1","<p style=""font-size: 70pt;"">+</p>","null","","","","","","","","","","","","",""
"","","","","","","","","","","","Stimulus Presentation","134","2.1.0","103174","65b7b0e4e6fa7d632205b4b6","Prolific","1","","null","","19","1","","null","313","348","313","35","e","false","3.5499999999999994","","","","","",""
"","","","","","","","","","","","Stimulus Response","135","2.1.0","103618","65b7b0e4e6fa7d632205b4b6","Prolific","1","","443","","19","1","","w","","","","","","","","0","","","","",""
"","","","","","","","","","","","Feedback","136","2.1.0","104119","65b7b0e4e6fa7d632205b4b6","Prolific","1","","null","","19","1","","null","","","","","","","","","","","","",""
"","","","","","","","","","","","Summary Trial","138","2.1.0","104120","65b7b0e4e6fa7d632205b4b6","Prolific","1","","443","","19","1","","w","313","348","","","","false","3.5499999999999994","0","","Practice","35","",""
"","","","","","","","","","","","html-keyboard-response","140","2.1.0","105122","65b7b0e4e6fa7d632205b4b6","Prolific","1","","null","","20","1","<p style=""font-size: 70pt;"">+</p>","null","","","","","","","","","","","","",""
"","","","","","","","","","","","Stimulus Presentation","141","2.1.0","105434","65b7b0e4e6fa7d632205b4b6","Prolific","1","","null","","20","1","","null","351","313","313","38","w","true","3.6499999999999995","","","","","",""
"","","","","","","","","","","","Stimulus Response","142","2.1.0","105648","65b7b0e4e6fa7d632205b4b6","Prolific","1","","212","","20","1","","w","","","","","","","","1","","","","",""
"","","","","","","","","","","","Feedback","143","2.1.0","106161","65b7b0e4e6fa7d632205b4b6","Prolific","1","","null","","20","1","","null","","","","","","","","","","","","",""
"","","","","","","","","","","","Summary Trial","145","2.1.0","106162","65b7b0e4e6fa7d632205b4b6","Prolific","1","","212","","20","1","","w","351","313","","","","true","3.6499999999999995","1","","Practice","38","",""
"","","","","","","","","","","","html-keyboard-response","147","2.1.0","107168","65b7b0e4e6fa7d632205b4b6","Prolific","1","","null","","21","1","<p style=""font-size: 70pt;"">+</p>","null","","","","","","","","","","","","",""
"","","","","","","","","","","","Stimulus Presentation","148","2.1.0","107476","65b7b0e4e6fa7d632205b4b6","Prolific","1","","null","","21","1","","null","313","351","313","38","e","false","3.6499999999999995","","","","","",""
"","","","","","","","","","","","Stimulus Response","149","2.1.0","107819","65b7b0e4e6fa7d632205b4b6","Prolific","1","","342","","21","1","","e","","","","","","","","1","","","","",""
"","","","","","","","","","","","Feedback","150","2.1.0","108337","65b7b0e4e6fa7d632205b4b6","Prolific","1","","null","","21","1","","null","","","","","","","","","","","","",""
"","","","","","","","","","","","Summary Trial","152","2.1.0","108337","65b7b0e4e6fa7d632205b4b6","Prolific","1","","342","","21","1","","e","313","351","","","","false","3.6499999999999995","1","","Practice","38","",""
"","","","","","","","","","","","html-keyboard-response","154","2.1.0","109347","65b7b0e4e6fa7d632205b4b6","Prolific","1","","null","","22","1","<p style=""font-size: 70pt;"">+</p>","null","","","","","","","","","","","","",""
"","","","","","","","","","","","Stimulus Presentation","155","2.1.0","109668","65b7b0e4e6fa7d632205b4b6","Prolific","1","","null","","22","1","","null","348","313","313","35","w","true","3.5499999999999994","","","","","",""
"","","","","","","","","","","","Stimulus Response","156","2.1.0","109904","65b7b0e4e6fa7d632205b4b6","Prolific","1","","235","","22","1","","w","","","","","","","","1","","","","",""
"","","","","","","","","","","","Feedback","157","2.1.0","110413","65b7b0e4e6fa7d632205b4b6","Prolific","1","","null","","22","1","","null","","","","","","","","","","","","",""
"","","","","","","","","","","","Summary Trial","159","2.1.0","110413","65b7b0e4e6fa7d632205b4b6","Prolific","1","","235","","22","1","","w","348","313","","","","true","3.5499999999999994","1","","Practice","35","",""
"","","","","","","","","","","","html-keyboard-response","161","2.1.0","111422","65b7b0e4e6fa7d632205b4b6","Prolific","1","","null","","23","1","<p style=""font-size: 70pt;"">+</p>","null","","","","","","","","","","","","",""
"","","","","","","","","","","","Stimulus Presentation","162","2.1.0","111739","65b7b0e4e6fa7d632205b4b6","Prolific","1","","null","","23","1","","null","313","348","313","35","e","false","3.5499999999999994","","","","","",""
"","","","","","","","","","","","Stimulus Response","163","2.1.0","111986","65b7b0e4e6fa7d632205b4b6","Prolific","1","","246","","23","1","","e","","","","","","","","1","","","","",""
"","","","","","","","","","","","Feedback","164","2.1.0","112496","65b7b0e4e6fa7d632205b4b6","Prolific","1","","null","","23","1","","null","","","","","","","","","","","","",""
"","","","","","","","","","","","Summary Trial","166","2.1.0","112496","65b7b0e4e6fa7d632205b4b6","Prolific","1","","246","","23","1","","e","313","348","","","","false","3.5499999999999994","1","","Practice","35","",""
"","","","","","","","","","","","html-keyboard-response","168","2.1.0","113507","65b7b0e4e6fa7d632205b4b6","Prolific","1","","null","","24","1","<p style=""font-size: 70pt;"">+</p>","null","","","","","","","","","","","","",""
"","","","","","","","","","","","Stimulus Presentation","169","2.1.0","113815","65b7b0e4e6fa7d632205b4b6","Prolific","1","","null","","24","1","","null","345","313","313","32","w","true","3.4499999999999993","","","","","",""
"","","","","","","","","","","","Stimulus Response","170","2.1.0","114016","65b7b0e4e6fa7d632205b4b6","Prolific","1","","200","","24","1","","e","","","","","","","","0","","","","",""
"","","","","","","","","","","","Feedback","171","2.1.0","114521","65b7b0e4e6fa7d632205b4b6","Prolific","1","","null","","24","1","","null","","","","","","","","","","","","",""
"","","","","","","","","","","","Summary Trial","173","2.1.0","114521","65b7b0e4e6fa7d632205b4b6","Prolific","1","","200","","24","1","","e","345","313","","","","true","3.4499999999999993","0","","Practice","32","",""
"","","","","","","","","","","","html-keyboard-response","175","2.1.0","115525","65b7b0e4e6fa7d632205b4b6","Prolific","1","","null","","25","1","<p style=""font-size: 70pt;"">+</p>","null","","","","","","","","","","","","",""
"","","","","","","","","","","","Stimulus Presentation","176","2.1.0","115841","65b7b0e4e6fa7d632205b4b6","Prolific","1","","null","","25","1","","null","348","313","313","35","w","true","3.5499999999999994","","","","","",""
"","","","","","","","","","","","Stimulus Response","177","2.1.0","115982","65b7b0e4e6fa7d632205b4b6","Prolific","1","","141","","25","1","","w","","","","","","","","1","","","","",""
"","","","","","","","","","","","Feedback","178","2.1.0","116501","65b7b0e4e6fa7d632205b4b6","Prolific","1","","null","","25","1","","null","","","","","","","","","","","","",""
"","","","","","","","","","","","Summary Trial","180","2.1.0","116502","65b7b0e4e6fa7d632205b4b6","Prolific","1","","141","","25","1","","w","348","313","","","","true","3.5499999999999994","1","","Practice","35","",""
"","","","","","","","","","","","html-keyboard-response","182","2.1.0","117514","65b7b0e4e6fa7d632205b4b6","Prolific","1","","null","","26","1","<p style=""font-size: 70pt;"">+</p>","null","","","","","","","","","","","","",""
"","","","","","","","","","","","Stimulus Presentation","183","2.1.0","117826","65b7b0e4e6fa7d632205b4b6","Prolific","1","","null","","26","1","","null","313","348","313","35","e","false","3.5499999999999994","","","","","",""
"","","","","","","","","","","","Stimulus Response","184","2.1.0","118154","65b7b0e4e6fa7d632205b4b6","Prolific","1","","326","","26","1","","e","","","","","","","","1","","","","",""
"","","","","","","","","","","","Feedback","185","2.1.0","118668","65b7b0e4e6fa7d632205b4b6","Prolific","1","","null","","26","1","","null","","","","","","","","","","","","",""
"","","","","","","","","","","","Summary Trial","187","2.1.0","118668","65b7b0e4e6fa7d632205b4b6","Prolific","1","","326","","26","1","","e","313","348","","","","false","3.5499999999999994","1","","Practice","35","",""
"","","","","","","","","","","","instructions","188","2.1.0","131130","65b7b0e4e6fa7d632205b4b6","Prolific","1","","12449","[{""page_index"":0,""viewing_time"":12448}]","","","","","","","","","","","","","","","","",""
"","","","","","","","","","","","Confidence Rating","189","2.1.0","136543","65b7b0e4e6fa7d632205b4b6","Prolific","1","","5390","","","","A rating scale as shown below is used throughout the task. 
        You will select any point with your mouse.<br>Choose any point on the 
          scale and click &apos;Submit&apos; to continue.<br><br>
            <div id=""conf1"" class=""conf"" style=""height:25px; width:154px; margin-top:2px; margin-left:15px;""></div>
            <div id=""conf2"" class=""conf"" style=""height:25px; width:154px; margin-top:2px; margin-left:169px;""></div>
            <div id=""conf3"" class=""conf"" style=""height:25px; width:154px; margin-top:2px; margin-left:323px;""></div>
            <div id=""conf4"" class=""conf"" style=""height:25px; width:154px; margin-top:2px; margin-left:477px;""></div>
     <div id=""conf5"" class=""conf"" style=""height:25px; width:154px; margin-top:2px; margin-left:631px;""></div>","3","","","","","","","","","","","","50",""
"","","","","","","","","","","","Confidence Rating","190","2.1.0","142686","65b7b0e4e6fa7d632205b4b6","Prolific","1","","6140","","","","During the task, if you are <strong>very sure</strong> that you made the correct judgement, you should respond <strong>&apos;Certain&apos;</strong><br><br>
            <div id=""conf1"" class=""conf"" style=""height:25px; width:154px; margin-top:2px; margin-left:15px;""></div>
            <div id=""conf2"" class=""conf"" style=""height:25px; width:154px; margin-top:2px; margin-left:169px;""></div>
            <div id=""conf3"" class=""conf"" style=""height:25px; width:154px; margin-top:2px; margin-left:323px;""></div>
            <div id=""conf4"" class=""conf"" style=""height:25px; width:154px; margin-top:2px; margin-left:477px;""></div>
   <div id=""conf5"" class=""conf"" style=""height:25px; width:154px; margin-top:2px; margin-left:631px;""></div>","6","","","","","","","","","","","","50",""
"","","","","","","","","","","","Confidence Rating","191","2.1.0","143849","65b7b0e4e6fa7d632205b4b6","Prolific","1","","1160","","","","If you are <strong>very unsure</strong> you made the correct judgement, you should respond <strong>&apos;Guessing&apos;</strong><br><br>
            <div id=""conf1"" class=""conf"" style=""height:25px; width:154px; margin-top:2px; margin-left:15px;""></div>
            <div id=""conf2"" class=""conf"" style=""height:25px; width:154px; margin-top:2px; margin-left:169px;""></div>
            <div id=""conf3"" class=""conf"" style=""height:25px; width:154px; margin-top:2px; margin-left:323px;""></div>
            <div id=""conf4"" class=""conf"" style=""height:25px; width:154px; margin-top:2px; margin-left:477px;""></div>
 <div id=""conf5"" class=""conf"" style=""height:25px; width:154px; margin-top:2px; margin-left:631px;""></div>","1","","","","","","","","","","","","1",""
"","","","","","","","","","","","Confidence Rating","192","2.1.0","146910","65b7b0e4e6fa7d632205b4b6","Prolific","1","","3058","","","","If you are <strong>somewhat sure</strong> about being correct, you should select a rating between the two descriptions.<br><br>
            <div id=""conf1"" class=""conf"" style=""height:25px; width:154px; margin-top:2px; margin-left:15px;""></div>
            <div id=""conf2"" class=""conf"" style=""height:25px; width:154px; margin-top:2px; margin-left:169px;""></div>
            <div id=""conf3"" class=""conf"" style=""height:25px; width:154px; margin-top:2px; margin-left:323px;""></div>
            <div id=""conf4"" class=""conf"" style=""height:25px; width:154px; margin-top:2px; margin-left:477px;""></div>
 <div id=""conf5"" class=""conf"" style=""height:25px; width:154px; margin-top:2px; margin-left:631px;""></div>","4","","","","","","","","","","","","4",""
"","","","","","","","","","","","Confidence Rating","193","2.1.0","152806","65b7b0e4e6fa7d632205b4b6","Prolific","1","","5894","","","","If you understand how to use and take advantage of the whole rating scale, choose any point on the rating scale and click &apos;Submit&apos; to continue.<br><br>
            <div id=""conf1"" class=""conf"" style=""height:25px; width:154px; margin-top:2px; margin-left:15px;""></div>
            <div id=""conf2"" class=""conf"" style=""height:25px; width:154px; margin-top:2px; margin-left:169px;""></div>
            <div id=""conf3"" class=""conf"" style=""height:25px; width:154px; margin-top:2px; margin-left:323px;""></div>
            <div id=""conf4"" class=""conf"" style=""height:25px; width:154px; margin-top:2px; margin-left:477px;""></div>
 <div id=""conf5"" class=""conf"" style=""height:25px; width:154px; margin-top:2px; margin-left:631px;""></div>","4","","","","","","","","","","","","50",""
"","","","","","","","","","","","instructions","194","2.1.0","155948","65b7b0e4e6fa7d632205b4b6","Prolific","1","","3141","[{""page_index"":0,""viewing_time"":3141}]","","","","","","","","","","","","","","","","",""
"","","","","","","","","","","","instructions","195","2.1.0","158406","65b7b0e4e6fa7d632205b4b6","Prolific","1","","2456","[{""page_index"":0,""viewing_time"":2456}]","","","","","","","","","","","","","","","","",""
"","","","","","","","","","","","html-keyboard-response","197","2.1.0","159421","65b7b0e4e6fa7d632205b4b6","Prolific","1","","null","","27","2","<p style=""font-size: 70pt;"">+</p>","null","","","","","","","","","","","","",""
"","","","","","","","","","","","Stimulus Presentation","198","2.1.0","159741","65b7b0e4e6fa7d632205b4b6","Prolific","1","","null","","27","2","","null","313","345","313","32","e","false","3.4499999999999993","","","","","",""
"","","","","","","","","","","","Stimulus Response","199","2.1.0","160517","65b7b0e4e6fa7d632205b4b6","Prolific","1","","774","","27","2","","w","","","","","","","","0","","","","",""
"","","","","","","","","","","","Feedback","200","2.1.0","161033","65b7b0e4e6fa7d632205b4b6","Prolific","1","","null","","27","2","","null","","","","","","","","","","","","",""
"","","","","","","","","","","","Confidence Rating","201","2.1.0","167980","65b7b0e4e6fa7d632205b4b6","Prolific","1","","6946","","27","2","<h3>Rate your confidence:</h3>
            <div id=""conf1"" class=""conf"" style=""height:25px; width:154px; margin-top:2px; margin-left:15px;""></div>
            <div id=""conf2"" class=""conf"" style=""height:25px; width:154px; margin-top:2px; margin-left:169px;""></div>
            <div id=""conf3"" class=""conf"" style=""height:25px; width:154px; margin-top:2px; margin-left:323px;""></div>
            <div id=""conf4"" class=""conf"" style=""height:25px; width:154px; margin-top:2px; margin-left:477px;""></div>
          <div id=""conf5"" class=""conf"" style=""height:25px; width:154px; margin-top:2px; margin-left:631px;""></div>","1","","","","","","","","","","","","50",""
"","","","","","","","","","","","Summary Trial","202","2.1.0","167981","65b7b0e4e6fa7d632205b4b6","Prolific","1","","774","","27","2","","w","313","345","","","","false","3.4499999999999993","0","","Test","32","","1"
"","","","","","","","","","","","html-keyboard-response","204","2.1.0","168990","65b7b0e4e6fa7d632205b4b6","Prolific","1","","null","","28","2","<p style=""font-size: 70pt;"">+</p>","null","","","","","","","","","","","","",""
"","","","","","","","","","","","Stimulus Presentation","205","2.1.0","169302","65b7b0e4e6fa7d632205b4b6","Prolific","1","","null","","28","2","","null","348","313","313","35","w","true","3.5499999999999994","","","","","",""
"","","","","","","","","","","","Stimulus Response","206","2.1.0","170007","65b7b0e4e6fa7d632205b4b6","Prolific","1","","704","","28","2","","w","","","","","","","","1","","","","",""
"","","","","","","","","","","","Feedback","207","2.1.0","170515","65b7b0e4e6fa7d632205b4b6","Prolific","1","","null","","28","2","","null","","","","","","","","","","","","",""
"","","","","","","","","","","","Confidence Rating","208","2.1.0","174048","65b7b0e4e6fa7d632205b4b6","Prolific","1","","3530","","28","2","<h3>Rate your confidence:</h3>
            <div id=""conf1"" class=""conf"" style=""height:25px; width:154px; margin-top:2px; margin-left:15px;""></div>
            <div id=""conf2"" class=""conf"" style=""height:25px; width:154px; margin-top:2px; margin-left:169px;""></div>
            <div id=""conf3"" class=""conf"" style=""height:25px; width:154px; margin-top:2px; margin-left:323px;""></div>
            <div id=""conf4"" class=""conf"" style=""height:25px; width:154px; margin-top:2px; margin-left:477px;""></div>
          <div id=""conf5"" class=""conf"" style=""height:25px; width:154px; margin-top:2px; margin-left:631px;""></div>","4","","","","","","","","","","","","50",""
"","","","","","","","","","","","Summary Trial","209","2.1.0","174049","65b7b0e4e6fa7d632205b4b6","Prolific","1","","704","","28","2","","w","348","313","","","","true","3.5499999999999994","1","","Test","35","","4"
"","","","","","","","","","","","html-keyboard-response","211","2.1.0","175066","65b7b0e4e6fa7d632205b4b6","Prolific","1","","null","","29","2","<p style=""font-size: 70pt;"">+</p>","null","","","","","","","","","","","","",""
"","","","","","","","","","","","Stimulus Presentation","212","2.1.0","175377","65b7b0e4e6fa7d632205b4b6","Prolific","1","","null","","29","2","","null","313","348","313","35","e","false","3.5499999999999994","","","","","",""
"","","","","","","","","","","","Stimulus Response","213","2.1.0","176135","65b7b0e4e6fa7d632205b4b6","Prolific","1","","757","","29","2","","w","","","","","","","","0","","","","",""
"","","","","","","","","","","","Feedback","214","2.1.0","176653","65b7b0e4e6fa7d632205b4b6","Prolific","1","","null","","29","2","","null","","","","","","","","","","","","",""
"","","","","","","","","","","","Confidence Rating","215","2.1.0","179119","65b7b0e4e6fa7d632205b4b6","Prolific","1","","2464","","29","2","<h3>Rate your confidence:</h3>
            <div id=""conf1"" class=""conf"" style=""height:25px; width:154px; margin-top:2px; margin-left:15px;""></div>
            <div id=""conf2"" class=""conf"" style=""height:25px; width:154px; margin-top:2px; margin-left:169px;""></div>
            <div id=""conf3"" class=""conf"" style=""height:25px; width:154px; margin-top:2px; margin-left:323px;""></div>
            <div id=""conf4"" class=""conf"" style=""height:25px; width:154px; margin-top:2px; margin-left:477px;""></div>
          <div id=""conf5"" class=""conf"" style=""height:25px; width:154px; margin-top:2px; margin-left:631px;""></div>","1","","","","","","","","","","","","50",""
"","","","","","","","","","","","Summary Trial","216","2.1.0","179120","65b7b0e4e6fa7d632205b4b6","Prolific","1","","757","","29","2","","w","313","348","","","","false","3.5499999999999994","0","","Test","35","","1"
"","","","","","","","","","","","html-keyboard-response","218","2.1.0","180129","65b7b0e4e6fa7d632205b4b6","Prolific","1","","null","","30","2","<p style=""font-size: 70pt;"">+</p>","null","","","","","","","","","","","","",""
"","","","","","","","","","","","Stimulus Presentation","219","2.1.0","180441","65b7b0e4e6fa7d632205b4b6","Prolific","1","","null","","30","2","","null","351","313","313","38","w","true","3.6499999999999995","","","","","",""
"","","","","","","","","","","","Stimulus Response","220","2.1.0","180757","65b7b0e4e6fa7d632205b4b6","Prolific","1","","314","","30","2","","w","","","","","","","","1","","","","",""
"","","","","","","","","","","","Feedback","221","2.1.0","181270","65b7b0e4e6fa7d632205b4b6","Prolific","1","","null","","30","2","","null","","","","","","","","","","","","",""
"","","","","","","","","","","","Confidence Rating","222","2.1.0","187719","65b7b0e4e6fa7d632205b4b6","Prolific","1","","6447","","30","2","<h3>Rate your confidence:</h3>
            <div id=""conf1"" class=""conf"" style=""height:25px; width:154px; margin-top:2px; margin-left:15px;""></div>
            <div id=""conf2"" class=""conf"" style=""height:25px; width:154px; margin-top:2px; margin-left:169px;""></div>
            <div id=""conf3"" class=""conf"" style=""height:25px; width:154px; margin-top:2px; margin-left:323px;""></div>
            <div id=""conf4"" class=""conf"" style=""height:25px; width:154px; margin-top:2px; margin-left:477px;""></div>
          <div id=""conf5"" class=""conf"" style=""height:25px; width:154px; margin-top:2px; margin-left:631px;""></div>","4","","","","","","","","","","","","50",""
"","","","","","","","","","","","Summary Trial","223","2.1.0","187720","65b7b0e4e6fa7d632205b4b6","Prolific","1","","314","","30","2","","w","351","313","","","","true","3.6499999999999995","1","","Test","38","","4"
"","","","","","","","","","","","html-keyboard-response","225","2.1.0","188733","65b7b0e4e6fa7d632205b4b6","Prolific","1","","null","","31","2","<p style=""font-size: 70pt;"">+</p>","null","","","","","","","","","","","","",""
"","","","","","","","","","","","Stimulus Presentation","226","2.1.0","189046","65b7b0e4e6fa7d632205b4b6","Prolific","1","","null","","31","2","","null","351","313","313","38","w","true","3.6499999999999995","","","","","",""
"","","","","","","","","","","","Stimulus Response","227","2.1.0","189630","65b7b0e4e6fa7d632205b4b6","Prolific","1","","583","","31","2","","w","","","","","","","","1","","","","",""
"","","","","","","","","","","","Feedback","228","2.1.0","190138","65b7b0e4e6fa7d632205b4b6","Prolific","1","","null","","31","2","","null","","","","","","","","","","","","",""
"","","","","","","","","","","","Confidence Rating","229","2.1.0","192987","65b7b0e4e6fa7d632205b4b6","Prolific","1","","2845","","31","2","<h3>Rate your confidence:</h3>
            <div id=""conf1"" class=""conf"" style=""height:25px; width:154px; margin-top:2px; margin-left:15px;""></div>
            <div id=""conf2"" class=""conf"" style=""height:25px; width:154px; margin-top:2px; margin-left:169px;""></div>
            <div id=""conf3"" class=""conf"" style=""height:25px; width:154px; margin-top:2px; margin-left:323px;""></div>
            <div id=""conf4"" class=""conf"" style=""height:25px; width:154px; margin-top:2px; margin-left:477px;""></div>
          <div id=""conf5"" class=""conf"" style=""height:25px; width:154px; margin-top:2px; margin-left:631px;""></div>","3","","","","","","","","","","","","50",""
"","","","","","","","","","","","Summary Trial","230","2.1.0","192988","65b7b0e4e6fa7d632205b4b6","Prolific","1","","583","","31","2","","w","351","313","","","","true","3.6499999999999995","1","","Test","38","","3"
"","","","","","","","","","","","html-keyboard-response","232","2.1.0","193998","65b7b0e4e6fa7d632205b4b6","Prolific","1","","null","","32","2","<p style=""font-size: 70pt;"">+</p>","null","","","","","","","","","","","","",""
"","","","","","","","","","","","Stimulus Presentation","233","2.1.0","194313","65b7b0e4e6fa7d632205b4b6","Prolific","1","","null","","32","2","","null","313","348","313","35","e","false","3.5499999999999994","","","","","",""
"","","","","","","","","","","","Stimulus Response","234","2.1.0","194949","65b7b0e4e6fa7d632205b4b6","Prolific","1","","635","","32","2","","e","","","","","","","","1","","","","",""
"","","","","","","","","","","","Feedback","235","2.1.0","195455","65b7b0e4e6fa7d632205b4b6","Prolific","1","","null","","32","2","","null","","","","","","","","","","","","",""
"","","","","","","","","","","","Confidence Rating","236","2.1.0","198251","65b7b0e4e6fa7d632205b4b6","Prolific","1","","2795","","32","2","<h3>Rate your confidence:</h3>
            <div id=""conf1"" class=""conf"" style=""height:25px; width:154px; margin-top:2px; margin-left:15px;""></div>
            <div id=""conf2"" class=""conf"" style=""height:25px; width:154px; margin-top:2px; margin-left:169px;""></div>
            <div id=""conf3"" class=""conf"" style=""height:25px; width:154px; margin-top:2px; margin-left:323px;""></div>
            <div id=""conf4"" class=""conf"" style=""height:25px; width:154px; margin-top:2px; margin-left:477px;""></div>
          <div id=""conf5"" class=""conf"" style=""height:25px; width:154px; margin-top:2px; margin-left:631px;""></div>","3","","","","","","","","","","","","50",""
"","","","","","","","","","","","Summary Trial","237","2.1.0","198252","65b7b0e4e6fa7d632205b4b6","Prolific","1","","635","","32","2","","e","313","348","","","","false","3.5499999999999994","1","","Test","35","","3"
"","","","","","","","","","","","html-keyboard-response","239","2.1.0","199261","65b7b0e4e6fa7d632205b4b6","Prolific","1","","null","","33","2","<p style=""font-size: 70pt;"">+</p>","null","","","","","","","","","","","","",""
"","","","","","","","","","","","Stimulus Presentation","240","2.1.0","199565","65b7b0e4e6fa7d632205b4b6","Prolific","1","","null","","33","2","","null","348","313","313","35","w","true","3.5499999999999994","","","","","",""
"","","","","","","","","","","","Stimulus Response","241","2.1.0","200362","65b7b0e4e6fa7d632205b4b6","Prolific","1","","795","","33","2","","w","","","","","","","","1","","","","",""
"","","","","","","","","","","","Feedback","242","2.1.0","200880","65b7b0e4e6fa7d632205b4b6","Prolific","1","","null","","33","2","","null","","","","","","","","","","","","",""
"","","","","","","","","","","","Confidence Rating","243","2.1.0","203321","65b7b0e4e6fa7d632205b4b6","Prolific","1","","2439","","33","2","<h3>Rate your confidence:</h3>
            <div id=""conf1"" class=""conf"" style=""height:25px; width:154px; margin-top:2px; margin-left:15px;""></div>
            <div id=""conf2"" class=""conf"" style=""height:25px; width:154px; margin-top:2px; margin-left:169px;""></div>
            <div id=""conf3"" class=""conf"" style=""height:25px; width:154px; margin-top:2px; margin-left:323px;""></div>
            <div id=""conf4"" class=""conf"" style=""height:25px; width:154px; margin-top:2px; margin-left:477px;""></div>
          <div id=""conf5"" class=""conf"" style=""height:25px; width:154px; margin-top:2px; margin-left:631px;""></div>","4","","","","","","","","","","","","50",""
"","","","","","","","","","","","Summary Trial","244","2.1.0","203322","65b7b0e4e6fa7d632205b4b6","Prolific","1","","795","","33","2","","w","348","313","","","","true","3.5499999999999994","1","","Test","35","","4"
"","","","","","","","","","","","html-keyboard-response","246","2.1.0","204330","65b7b0e4e6fa7d632205b4b6","Prolific","1","","null","","34","2","<p style=""font-size: 70pt;"">+</p>","null","","","","","","","","","","","","",""
"","","","","","","","","","","","Stimulus Presentation","247","2.1.0","204644","65b7b0e4e6fa7d632205b4b6","Prolific","1","","null","","34","2","","null","313","345","313","32","e","false","3.4499999999999993","","","","","",""
"","","","","","","","","","","","Stimulus Response","248","2.1.0","205552","65b7b0e4e6fa7d632205b4b6","Prolific","1","","906","","34","2","","e","","","","","","","","1","","","","",""
"","","","","","","","","","","","Feedback","249","2.1.0","206066","65b7b0e4e6fa7d632205b4b6","Prolific","1","","null","","34","2","","null","","","","","","","","","","","","",""
"","","","","","","","","","","","Confidence Rating","250","2.1.0","209104","65b7b0e4e6fa7d632205b4b6","Prolific","1","","3035","","34","2","<h3>Rate your confidence:</h3>
            <div id=""conf1"" class=""conf"" style=""height:25px; width:154px; margin-top:2px; margin-left:15px;""></div>
            <div id=""conf2"" class=""conf"" style=""height:25px; width:154px; margin-top:2px; margin-left:169px;""></div>
            <div id=""conf3"" class=""conf"" style=""height:25px; width:154px; margin-top:2px; margin-left:323px;""></div>
            <div id=""conf4"" class=""conf"" style=""height:25px; width:154px; margin-top:2px; margin-left:477px;""></div>
          <div id=""conf5"" class=""conf"" style=""height:25px; width:154px; margin-top:2px; margin-left:631px;""></div>","1","","","","","","","","","","","","50",""
"","","","","","","","","","","","Summary Trial","251","2.1.0","209105","65b7b0e4e6fa7d632205b4b6","Prolific","1","","906","","34","2","","e","313","345","","","","false","3.4499999999999993","1","","Test","32","","1"
"","","","","","","","","","","","html-keyboard-response","253","2.1.0","210114","65b7b0e4e6fa7d632205b4b6","Prolific","1","","null","","35","2","<p style=""font-size: 70pt;"">+</p>","null","","","","","","","","","","","","",""
"","","","","","","","","","","","Stimulus Presentation","254","2.1.0","210425","65b7b0e4e6fa7d632205b4b6","Prolific","1","","null","","35","2","","null","313","345","313","32","e","false","3.4499999999999993","","","","","",""
"","","","","","","","","","","","Stimulus Response","255","2.1.0","211061","65b7b0e4e6fa7d632205b4b6","Prolific","1","","636","","35","2","","e","","","","","","","","1","","","","",""
"","","","","","","","","","","","Feedback","256","2.1.0","211574","65b7b0e4e6fa7d632205b4b6","Prolific","1","","null","","35","2","","null","","","","","","","","","","","","",""
"","","","","","","","","","","","Confidence Rating","257","2.1.0","214269","65b7b0e4e6fa7d632205b4b6","Prolific","1","","2693","","35","2","<h3>Rate your confidence:</h3>
            <div id=""conf1"" class=""conf"" style=""height:25px; width:154px; margin-top:2px; margin-left:15px;""></div>
            <div id=""conf2"" class=""conf"" style=""height:25px; width:154px; margin-top:2px; margin-left:169px;""></div>
            <div id=""conf3"" class=""conf"" style=""height:25px; width:154px; margin-top:2px; margin-left:323px;""></div>
            <div id=""conf4"" class=""conf"" style=""height:25px; width:154px; margin-top:2px; margin-left:477px;""></div>
          <div id=""conf5"" class=""conf"" style=""height:25px; width:154px; margin-top:2px; margin-left:631px;""></div>","3","","","","","","","","","","","","50",""
"","","","","","","","","","","","Summary Trial","258","2.1.0","214270","65b7b0e4e6fa7d632205b4b6","Prolific","1","","636","","35","2","","e","313","345","","","","false","3.4499999999999993","1","","Test","32","","3"
"","","","","","","","","","","","html-keyboard-response","260","2.1.0","215283","65b7b0e4e6fa7d632205b4b6","Prolific","1","","null","","36","2","<p style=""font-size: 70pt;"">+</p>","null","","","","","","","","","","","","",""
"","","","","","","","","","","","Stimulus Presentation","261","2.1.0","215600","65b7b0e4e6fa7d632205b4b6","Prolific","1","","null","","36","2","","null","342","313","313","29","w","true","3.349999999999999","","","","","",""
"","","","","","","","","","","","Stimulus Response","262","2.1.0","216178","65b7b0e4e6fa7d632205b4b6","Prolific","1","","578","","36","2","","w","","","","","","","","1","","","","",""
"","","","","","","","","","","","Feedback","263","2.1.0","216684","65b7b0e4e6fa7d632205b4b6","Prolific","1","","null","","36","2","","null","","","","","","","","","","","","",""
"","","","","","","","","","","","Confidence Rating","264","2.1.0","218844","65b7b0e4e6fa7d632205b4b6","Prolific","1","","2158","","36","2","<h3>Rate your confidence:</h3>
            <div id=""conf1"" class=""conf"" style=""height:25px; width:154px; margin-top:2px; margin-left:15px;""></div>
            <div id=""conf2"" class=""conf"" style=""height:25px; width:154px; margin-top:2px; margin-left:169px;""></div>
            <div id=""conf3"" class=""conf"" style=""height:25px; width:154px; margin-top:2px; margin-left:323px;""></div>
            <div id=""conf4"" class=""conf"" style=""height:25px; width:154px; margin-top:2px; margin-left:477px;""></div>
          <div id=""conf5"" class=""conf"" style=""height:25px; width:154px; margin-top:2px; margin-left:631px;""></div>","4","","","","","","","","","","","","50",""
"","","","","","","","","","","","Summary Trial","265","2.1.0","218845","65b7b0e4e6fa7d632205b4b6","Prolific","1","","578","","36","2","","w","342","313","","","","true","3.349999999999999","1","","Test","29","","4"
"","","","","","","","","","","","html-keyboard-response","267","2.1.0","219850","65b7b0e4e6fa7d632205b4b6","Prolific","1","","null","","37","2","<p style=""font-size: 70pt;"">+</p>","null","","","","","","","","","","","","",""
"","","","","","","","","","","","Stimulus Presentation","268","2.1.0","220160","65b7b0e4e6fa7d632205b4b6","Prolific","1","","null","","37","2","","null","342","313","313","29","w","true","3.349999999999999","","","","","",""
"","","","","","","","","","","","Stimulus Response","269","2.1.0","220765","65b7b0e4e6fa7d632205b4b6","Prolific","1","","604","","37","2","","w","","","","","","","","1","","","","",""
"","","","","","","","","","","","Feedback","270","2.1.0","221285","65b7b0e4e6fa7d632205b4b6","Prolific","1","","null","","37","2","","null","","","","","","","","","","","","",""
"","","","","","","","","","","","Confidence Rating","271","2.1.0","223576","65b7b0e4e6fa7d632205b4b6","Prolific","1","","2289","","37","2","<h3>Rate your confidence:</h3>
            <div id=""conf1"" class=""conf"" style=""height:25px; width:154px; margin-top:2px; margin-left:15px;""></div>
            <div id=""conf2"" class=""conf"" style=""height:25px; width:154px; margin-top:2px; margin-left:169px;""></div>
            <div id=""conf3"" class=""conf"" style=""height:25px; width:154px; margin-top:2px; margin-left:323px;""></div>
            <div id=""conf4"" class=""conf"" style=""height:25px; width:154px; margin-top:2px; margin-left:477px;""></div>
          <div id=""conf5"" class=""conf"" style=""height:25px; width:154px; margin-top:2px; margin-left:631px;""></div>","3","","","","","","","","","","","","50",""
"","","","","","","","","","","","Summary Trial","272","2.1.0","223577","65b7b0e4e6fa7d632205b4b6","Prolific","1","","604","","37","2","","w","342","313","","","","true","3.349999999999999","1","","Test","29","","3"
"","","","","","","","","","","","html-keyboard-response","274","2.1.0","224580","65b7b0e4e6fa7d632205b4b6","Prolific","1","","null","","38","2","<p style=""font-size: 70pt;"">+</p>","null","","","","","","","","","","","","",""
"","","","","","","","","","","","Stimulus Presentation","275","2.1.0","224894","65b7b0e4e6fa7d632205b4b6","Prolific","1","","null","","38","2","","null","313","339","313","26","e","false","3.249999999999999","","","","","",""
"","","","","","","","","","","","Stimulus Response","276","2.1.0","225587","65b7b0e4e6fa7d632205b4b6","Prolific","1","","692","","38","2","","w","","","","","","","","0","","","","",""
"","","","","","","","","","","","Feedback","277","2.1.0","226097","65b7b0e4e6fa7d632205b4b6","Prolific","1","","null","","38","2","","null","","","","","","","","","","","","",""
"","","","","","","","","","","","Confidence Rating","278","2.1.0","233951","65b7b0e4e6fa7d632205b4b6","Prolific","1","","7852","","38","2","<h3>Rate your confidence:</h3>
            <div id=""conf1"" class=""conf"" style=""height:25px; width:154px; margin-top:2px; margin-left:15px;""></div>
            <div id=""conf2"" class=""conf"" style=""height:25px; width:154px; margin-top:2px; margin-left:169px;""></div>
            <div id=""conf3"" class=""conf"" style=""height:25px; width:154px; margin-top:2px; margin-left:323px;""></div>
            <div id=""conf4"" class=""conf"" style=""height:25px; width:154px; margin-top:2px; margin-left:477px;""></div>
          <div id=""conf5"" class=""conf"" style=""height:25px; width:154px; margin-top:2px; margin-left:631px;""></div>","3","","","","","","","","","","","","50",""
"","","","","","","","","","","","Summary Trial","279","2.1.0","233953","65b7b0e4e6fa7d632205b4b6","Prolific","1","","692","","38","2","","w","313","339","","","","false","3.249999999999999","0","","Test","26","","3"
"","","","","","","","","","","","html-keyboard-response","281","2.1.0","234965","65b7b0e4e6fa7d632205b4b6","Prolific","1","","null","","39","2","<p style=""font-size: 70pt;"">+</p>","null","","","","","","","","","","","","",""
"","","","","","","","","","","","Stimulus Presentation","282","2.1.0","235280","65b7b0e4e6fa7d632205b4b6","Prolific","1","","null","","39","2","","null","342","313","313","29","w","true","3.349999999999999","","","","","",""
"","","","","","","","","","","","Stimulus Response","283","2.1.0","235895","65b7b0e4e6fa7d632205b4b6","Prolific","1","","614","","39","2","","w","","","","","","","","1","","","","",""
"","","","","","","","","","","","Feedback","284","2.1.0","236413","65b7b0e4e6fa7d632205b4b6","Prolific","1","","null","","39","2","","null","","","","","","","","","","","","",""
"","","","","","","","","","","","Confidence Rating","285","2.1.0","238154","65b7b0e4e6fa7d632205b4b6","Prolific","1","","1739","","39","2","<h3>Rate your confidence:</h3>
            <div id=""conf1"" class=""conf"" style=""height:25px; width:154px; margin-top:2px; margin-left:15px;""></div>
            <div id=""conf2"" class=""conf"" style=""height:25px; width:154px; margin-top:2px; margin-left:169px;""></div>
            <div id=""conf3"" class=""conf"" style=""height:25px; width:154px; margin-top:2px; margin-left:323px;""></div>
            <div id=""conf4"" class=""conf"" style=""height:25px; width:154px; margin-top:2px; margin-left:477px;""></div>
          <div id=""conf5"" class=""conf"" style=""height:25px; width:154px; margin-top:2px; margin-left:631px;""></div>","4","","","","","","","","","","","","50",""
"","","","","","","","","","","","Summary Trial","286","2.1.0","238155","65b7b0e4e6fa7d632205b4b6","Prolific","1","","614","","39","2","","w","342","313","","","","true","3.349999999999999","1","","Test","29","","4"
"","","","","","","","","","","","html-keyboard-response","288","2.1.0","239160","65b7b0e4e6fa7d632205b4b6","Prolific","1","","null","","40","2","<p style=""font-size: 70pt;"">+</p>","null","","","","","","","","","","","","",""
"","","","","","","","","","","","Stimulus Presentation","289","2.1.0","239464","65b7b0e4e6fa7d632205b4b6","Prolific","1","","null","","40","2","","null","313","342","313","29","e","false","3.349999999999999","","","","","",""
"","","","","","","","","","","","Stimulus Response","290","2.1.0","240272","65b7b0e4e6fa7d632205b4b6","Prolific","1","","807","","40","2","","e","","","","","","","","1","","","","",""
"","","","","","","","","","","","Feedback","291","2.1.0","240787","65b7b0e4e6fa7d632205b4b6","Prolific","1","","null","","40","2","","null","","","","","","","","","","","","",""
"","","","","","","","","","","","Confidence Rating","292","2.1.0","242984","65b7b0e4e6fa7d632205b4b6","Prolific","1","","2194","","40","2","<h3>Rate your confidence:</h3>
            <div id=""conf1"" class=""conf"" style=""height:25px; width:154px; margin-top:2px; margin-left:15px;""></div>
            <div id=""conf2"" class=""conf"" style=""height:25px; width:154px; margin-top:2px; margin-left:169px;""></div>
            <div id=""conf3"" class=""conf"" style=""height:25px; width:154px; margin-top:2px; margin-left:323px;""></div>
            <div id=""conf4"" class=""conf"" style=""height:25px; width:154px; margin-top:2px; margin-left:477px;""></div>
          <div id=""conf5"" class=""conf"" style=""height:25px; width:154px; margin-top:2px; margin-left:631px;""></div>","2","","","","","","","","","","","","50",""
"","","","","","","","","","","","Summary Trial","293","2.1.0","242985","65b7b0e4e6fa7d632205b4b6","Prolific","1","","807","","40","2","","e","313","342","","","","false","3.349999999999999","1","","Test","29","","2"
"","","","","","","","","","","","html-keyboard-response","295","2.1.0","243994","65b7b0e4e6fa7d632205b4b6","Prolific","1","","null","","41","2","<p style=""font-size: 70pt;"">+</p>","null","","","","","","","","","","","","",""
"","","","","","","","","","","","Stimulus Presentation","296","2.1.0","244310","65b7b0e4e6fa7d632205b4b6","Prolific","1","","null","","41","2","","null","313","339","313","26","e","false","3.249999999999999","","","","","",""
"","","","","","","","","","","","Stimulus Response","297","2.1.0","245134","65b7b0e4e6fa7d632205b4b6","Prolific","1","","822","","41","2","","e","","","","","","","","1","","","","",""
"","","","","","","","","","","","Feedback","298","2.1.0","245652","65b7b0e4e6fa7d632205b4b6","Prolific","1","","null","","41","2","","null","","","","","","","","","","","","",""
"","","","","","","","","","","","Confidence Rating","299","2.1.0","247649","65b7b0e4e6fa7d632205b4b6","Prolific","1","","1995","","41","2","<h3>Rate your confidence:</h3>
            <div id=""conf1"" class=""conf"" style=""height:25px; width:154px; margin-top:2px; margin-left:15px;""></div>
            <div id=""conf2"" class=""conf"" style=""height:25px; width:154px; margin-top:2px; margin-left:169px;""></div>
            <div id=""conf3"" class=""conf"" style=""height:25px; width:154px; margin-top:2px; margin-left:323px;""></div>
            <div id=""conf4"" class=""conf"" style=""height:25px; width:154px; margin-top:2px; margin-left:477px;""></div>
          <div id=""conf5"" class=""conf"" style=""height:25px; width:154px; margin-top:2px; margin-left:631px;""></div>","3","","","","","","","","","","","","50",""
"","","","","","","","","","","","Summary Trial","300","2.1.0","247651","65b7b0e4e6fa7d632205b4b6","Prolific","1","","822","","41","2","","e","313","339","","","","false","3.249999999999999","1","","Test","26","","3"
"","","","","","","","","","","","html-keyboard-response","302","2.1.0","248653","65b7b0e4e6fa7d632205b4b6","Prolific","1","","null","","42","2","<p style=""font-size: 70pt;"">+</p>","null","","","","","","","","","","","","",""
"","","","","","","","","","","","Stimulus Presentation","303","2.1.0","248970","65b7b0e4e6fa7d632205b4b6","Prolific","1","","null","","42","2","","null","339","313","313","26","w","true","3.249999999999999","","","","","",""
"","","","","","","","","","","","Stimulus Response","304","2.1.0","249499","65b7b0e4e6fa7d632205b4b6","Prolific","1","","527","","42","2","","w","","","","","","","","1","","","","",""
"","","","","","","","","","","","Feedback","305","2.1.0","250006","65b7b0e4e6fa7d632205b4b6","Prolific","1","","null","","42","2","","null","","","","","","","","","","","","",""
"","","","","","","","","","","","Confidence Rating","306","2.1.0","253984","65b7b0e4e6fa7d632205b4b6","Prolific","1","","3975","","42","2","<h3>Rate your confidence:</h3>
            <div id=""conf1"" class=""conf"" style=""height:25px; width:154px; margin-top:2px; margin-left:15px;""></div>
            <div id=""conf2"" class=""conf"" style=""height:25px; width:154px; margin-top:2px; margin-left:169px;""></div>
            <div id=""conf3"" class=""conf"" style=""height:25px; width:154px; margin-top:2px; margin-left:323px;""></div>
            <div id=""conf4"" class=""conf"" style=""height:25px; width:154px; margin-top:2px; margin-left:477px;""></div>
          <div id=""conf5"" class=""conf"" style=""height:25px; width:154px; margin-top:2px; margin-left:631px;""></div>","3","","","","","","","","","","","","50",""
"","","","","","","","","","","","Summary Trial","307","2.1.0","253985","65b7b0e4e6fa7d632205b4b6","Prolific","1","","527","","42","2","","w","339","313","","","","true","3.249999999999999","1","","Test","26","","3"
"","","","","","","","","","","","html-keyboard-response","309","2.1.0","254988","65b7b0e4e6fa7d632205b4b6","Prolific","1","","null","","43","2","<p style=""font-size: 70pt;"">+</p>","null","","","","","","","","","","","","",""
"","","","","","","","","","","","Stimulus Presentation","310","2.1.0","255297","65b7b0e4e6fa7d632205b4b6","Prolific","1","","null","","43","2","","null","336","313","313","23","w","true","3.149999999999999","","","","","",""
"","","","","","","","","","","","Stimulus Response","311","2.1.0","256046","65b7b0e4e6fa7d632205b4b6","Prolific","1","","747","","43","2","","w","","","","","","","","1","","","","",""
"","","","","","","","","","","","Feedback","312","2.1.0","256562","65b7b0e4e6fa7d632205b4b6","Prolific","1","","null","","43","2","","null","","","","","","","","","","","","",""
"","","","","","","","","","","","Confidence Rating","313","2.1.0","259053","65b7b0e4e6fa7d632205b4b6","Prolific","1","","2489","","43","2","<h3>Rate your confidence:</h3>
            <div id=""conf1"" class=""conf"" style=""height:25px; width:154px; margin-top:2px; margin-left:15px;""></div>
            <div id=""conf2"" class=""conf"" style=""height:25px; width:154px; margin-top:2px; margin-left:169px;""></div>
            <div id=""conf3"" class=""conf"" style=""height:25px; width:154px; margin-top:2px; margin-left:323px;""></div>
            <div id=""conf4"" class=""conf"" style=""height:25px; width:154px; margin-top:2px; margin-left:477px;""></div>
          <div id=""conf5"" class=""conf"" style=""height:25px; width:154px; margin-top:2px; margin-left:631px;""></div>","2","","","","","","","","","","","","50",""
"","","","","","","","","","","","Summary Trial","314","2.1.0","259054","65b7b0e4e6fa7d632205b4b6","Prolific","1","","747","","43","2","","w","336","313","","","","true","3.149999999999999","1","","Test","23","","2"
"","","","","","","","","","","","html-keyboard-response","316","2.1.0","260064","65b7b0e4e6fa7d632205b4b6","Prolific","1","","null","","44","2","<p style=""font-size: 70pt;"">+</p>","null","","","","","","","","","","","","",""
"","","","","","","","","","","","Stimulus Presentation","317","2.1.0","260380","65b7b0e4e6fa7d632205b4b6","Prolific","1","","null","","44","2","","null","313","336","313","23","e","false","3.149999999999999","","","","","",""
"","","","","","","","","","","","Stimulus Response","318","2.1.0","261341","65b7b0e4e6fa7d632205b4b6","Prolific","1","","960","","44","2","","e","","","","","","","","1","","","","",""
"","","","","","","","","","","","Feedback","319","2.1.0","261856","65b7b0e4e6fa7d632205b4b6","Prolific","1","","null","","44","2","","null","","","","","","","","","","","","",""
"","","","","","","","","","","","Confidence Rating","320","2.1.0","264574","65b7b0e4e6fa7d632205b4b6","Prolific","1","","2716","","44","2","<h3>Rate your confidence:</h3>
            <div id=""conf1"" class=""conf"" style=""height:25px; width:154px; margin-top:2px; margin-left:15px;""></div>
            <div id=""conf2"" class=""conf"" style=""height:25px; width:154px; margin-top:2px; margin-left:169px;""></div>
            <div id=""conf3"" class=""conf"" style=""height:25px; width:154px; margin-top:2px; margin-left:323px;""></div>
            <div id=""conf4"" class=""conf"" style=""height:25px; width:154px; margin-top:2px; margin-left:477px;""></div>
          <div id=""conf5"" class=""conf"" style=""height:25px; width:154px; margin-top:2px; margin-left:631px;""></div>","1","","","","","","","","","","","","50",""
"","","","","","","","","","","","Summary Trial","321","2.1.0","264576","65b7b0e4e6fa7d632205b4b6","Prolific","1","","960","","44","2","","e","313","336","","","","false","3.149999999999999","1","","Test","23","","1"
"","","","","","","","","","","","html-keyboard-response","323","2.1.0","265583","65b7b0e4e6fa7d632205b4b6","Prolific","1","","null","","45","2","<p style=""font-size: 70pt;"">+</p>","null","","","","","","","","","","","","",""
"","","","","","","","","","","","Stimulus Presentation","324","2.1.0","265897","65b7b0e4e6fa7d632205b4b6","Prolific","1","","null","","45","2","","null","313","334","313","21","e","false","3.049999999999999","","","","","",""
"","","","","","","","","","","","Stimulus Response","325","2.1.0","266649","65b7b0e4e6fa7d632205b4b6","Prolific","1","","751","","45","2","","e","","","","","","","","1","","","","",""
"","","","","","","","","","","","Feedback","326","2.1.0","267172","65b7b0e4e6fa7d632205b4b6","Prolific","1","","null","","45","2","","null","","","","","","","","","","","","",""
"","","","","","","","","","","","Confidence Rating","327","2.1.0","269986","65b7b0e4e6fa7d632205b4b6","Prolific","1","","2812","","45","2","<h3>Rate your confidence:</h3>
            <div id=""conf1"" class=""conf"" style=""height:25px; width:154px; margin-top:2px; margin-left:15px;""></div>
            <div id=""conf2"" class=""conf"" style=""height:25px; width:154px; margin-top:2px; margin-left:169px;""></div>
            <div id=""conf3"" class=""conf"" style=""height:25px; width:154px; margin-top:2px; margin-left:323px;""></div>
            <div id=""conf4"" class=""conf"" style=""height:25px; width:154px; margin-top:2px; margin-left:477px;""></div>
          <div id=""conf5"" class=""conf"" style=""height:25px; width:154px; margin-top:2px; margin-left:631px;""></div>","1","","","","","","","","","","","","50",""
"","","","","","","","","","","","Summary Trial","328","2.1.0","269988","65b7b0e4e6fa7d632205b4b6","Prolific","1","","751","","45","2","","e","313","334","","","","false","3.049999999999999","1","","Test","21","","1"
"","","","","","","","","","","","html-keyboard-response","330","2.1.0","271004","65b7b0e4e6fa7d632205b4b6","Prolific","1","","null","","46","2","<p style=""font-size: 70pt;"">+</p>","null","","","","","","","","","","","","",""
"","","","","","","","","","","","Stimulus Presentation","331","2.1.0","271313","65b7b0e4e6fa7d632205b4b6","Prolific","1","","null","","46","2","","null","334","313","313","21","w","true","3.049999999999999","","","","","",""
"","","","","","","","","","","","Stimulus Response","332","2.1.0","271843","65b7b0e4e6fa7d632205b4b6","Prolific","1","","528","","46","2","","w","","","","","","","","1","","","","",""
"","","","","","","","","","","","Feedback","333","2.1.0","272357","65b7b0e4e6fa7d632205b4b6","Prolific","1","","null","","46","2","","null","","","","","","","","","","","","",""
"","","","","","","","","","","","Confidence Rating","334","2.1.0","274429","65b7b0e4e6fa7d632205b4b6","Prolific","1","","2069","","46","2","<h3>Rate your confidence:</h3>
            <div id=""conf1"" class=""conf"" style=""height:25px; width:154px; margin-top:2px; margin-left:15px;""></div>
            <div id=""conf2"" class=""conf"" style=""height:25px; width:154px; margin-top:2px; margin-left:169px;""></div>
            <div id=""conf3"" class=""conf"" style=""height:25px; width:154px; margin-top:2px; margin-left:323px;""></div>
            <div id=""conf4"" class=""conf"" style=""height:25px; width:154px; margin-top:2px; margin-left:477px;""></div>
          <div id=""conf5"" class=""conf"" style=""height:25px; width:154px; margin-top:2px; margin-left:631px;""></div>","4","","","","","","","","","","","","50",""
"","","","","","","","","","","","Summary Trial","335","2.1.0","274431","65b7b0e4e6fa7d632205b4b6","Prolific","1","","528","","46","2","","w","334","313","","","","true","3.049999999999999","1","","Test","21","","4"
"","","","","","","","","","","","html-keyboard-response","337","2.1.0","275444","65b7b0e4e6fa7d632205b4b6","Prolific","1","","null","","47","2","<p style=""font-size: 70pt;"">+</p>","null","","","","","","","","","","","","",""
"","","","","","","","","","","","Stimulus Presentation","338","2.1.0","275755","65b7b0e4e6fa7d632205b4b6","Prolific","1","","null","","47","2","","null","332","313","313","19","w","true","2.949999999999999","","","","","",""
"","","","","","","","","","","","Stimulus Response","339","2.1.0","276444","65b7b0e4e6fa7d632205b4b6","Prolific","1","","687","","47","2","","w","","","","","","","","1","","","","",""
"","","","","","","","","","","","Feedback","340","2.1.0","276949","65b7b0e4e6fa7d632205b4b6","Prolific","1","","null","","47","2","","null","","","","","","","","","","","","",""
"","","","","","","","","","","","Confidence Rating","341","2.1.0","279553","65b7b0e4e6fa7d632205b4b6","Prolific","1","","2603","","47","2","<h3>Rate your confidence:</h3>
            <div id=""conf1"" class=""conf"" style=""height:25px; width:154px; margin-top:2px; margin-left:15px;""></div>
            <div id=""conf2"" class=""conf"" style=""height:25px; width:154px; margin-top:2px; margin-left:169px;""></div>
            <div id=""conf3"" class=""conf"" style=""height:25px; width:154px; margin-top:2px; margin-left:323px;""></div>
            <div id=""conf4"" class=""conf"" style=""height:25px; width:154px; margin-top:2px; margin-left:477px;""></div>
          <div id=""conf5"" class=""conf"" style=""height:25px; width:154px; margin-top:2px; margin-left:631px;""></div>","2","","","","","","","","","","","","50",""
"","","","","","","","","","","","Summary Trial","342","2.1.0","279554","65b7b0e4e6fa7d632205b4b6","Prolific","1","","687","","47","2","","w","332","313","","","","true","2.949999999999999","1","","Test","19","","2"
"","","","","","","","","","","","html-keyboard-response","344","2.1.0","280567","65b7b0e4e6fa7d632205b4b6","Prolific","1","","null","","48","2","<p style=""font-size: 70pt;"">+</p>","null","","","","","","","","","","","","",""
"","","","","","","","","","","","Stimulus Presentation","345","2.1.0","280881","65b7b0e4e6fa7d632205b4b6","Prolific","1","","null","","48","2","","null","313","332","313","19","e","false","2.949999999999999","","","","","",""
"","","","","","","","","","","","Stimulus Response","346","2.1.0","281363","65b7b0e4e6fa7d632205b4b6","Prolific","1","","480","","48","2","","w","","","","","","","","0","","","","",""
"","","","","","","","","","","","Feedback","347","2.1.0","281873","65b7b0e4e6fa7d632205b4b6","Prolific","1","","null","","48","2","","null","","","","","","","","","","","","",""
"","","","","","","","","","","","Confidence Rating","348","2.1.0","284320","65b7b0e4e6fa7d632205b4b6","Prolific","1","","2445","","48","2","<h3>Rate your confidence:</h3>
            <div id=""conf1"" class=""conf"" style=""height:25px; width:154px; margin-top:2px; margin-left:15px;""></div>
            <div id=""conf2"" class=""conf"" style=""height:25px; width:154px; margin-top:2px; margin-left:169px;""></div>
            <div id=""conf3"" class=""conf"" style=""height:25px; width:154px; margin-top:2px; margin-left:323px;""></div>
            <div id=""conf4"" class=""conf"" style=""height:25px; width:154px; margin-top:2px; margin-left:477px;""></div>
          <div id=""conf5"" class=""conf"" style=""height:25px; width:154px; margin-top:2px; margin-left:631px;""></div>","3","","","","","","","","","","","","50",""
"","","","","","","","","","","","Summary Trial","349","2.1.0","284321","65b7b0e4e6fa7d632205b4b6","Prolific","1","","480","","48","2","","w","313","332","","","","false","2.949999999999999","0","","Test","19","","3"
"","","","","","","","","","","","html-keyboard-response","351","2.1.0","285334","65b7b0e4e6fa7d632205b4b6","Prolific","1","","null","","49","2","<p style=""font-size: 70pt;"">+</p>","null","","","","","","","","","","","","",""
"","","","","","","","","","","","Stimulus Presentation","352","2.1.0","285649","65b7b0e4e6fa7d632205b4b6","Prolific","1","","null","","49","2","","null","313","334","313","21","e","false","3.049999999999999","","","","","",""
"","","","","","","","","","","","Stimulus Response","353","2.1.0","286358","65b7b0e4e6fa7d632205b4b6","Prolific","1","","708","","49","2","","e","","","","","","","","1","","","","",""
"","","","","","","","","","","","Feedback","354","2.1.0","286873","65b7b0e4e6fa7d632205b4b6","Prolific","1","","null","","49","2","","null","","","","","","","","","","","","",""
"","","","","","","","","","","","Confidence Rating","355","2.1.0","290284","65b7b0e4e6fa7d632205b4b6","Prolific","1","","3410","","49","2","<h3>Rate your confidence:</h3>
            <div id=""conf1"" class=""conf"" style=""height:25px; width:154px; margin-top:2px; margin-left:15px;""></div>
            <div id=""conf2"" class=""conf"" style=""height:25px; width:154px; margin-top:2px; margin-left:169px;""></div>
            <div id=""conf3"" class=""conf"" style=""height:25px; width:154px; margin-top:2px; margin-left:323px;""></div>
            <div id=""conf4"" class=""conf"" style=""height:25px; width:154px; margin-top:2px; margin-left:477px;""></div>
          <div id=""conf5"" class=""conf"" style=""height:25px; width:154px; margin-top:2px; margin-left:631px;""></div>","1","","","","","","","","","","","","50",""
"","","","","","","","","","","","Summary Trial","356","2.1.0","290285","65b7b0e4e6fa7d632205b4b6","Prolific","1","","708","","49","2","","e","313","334","","","","false","3.049999999999999","1","","Test","21","","1"
"","","","","","","","","","","","html-keyboard-response","358","2.1.0","291303","65b7b0e4e6fa7d632205b4b6","Prolific","1","","null","","50","2","<p style=""font-size: 70pt;"">+</p>","null","","","","","","","","","","","","",""
"","","","","","","","","","","","Stimulus Presentation","359","2.1.0","291614","65b7b0e4e6fa7d632205b4b6","Prolific","1","","null","","50","2","","null","334","313","313","21","w","true","3.049999999999999","","","","","",""
"","","","","","","","","","","","Stimulus Response","360","2.1.0","292015","65b7b0e4e6fa7d632205b4b6","Prolific","1","","401","","50","2","","w","","","","","","","","1","","","","",""
"","","","","","","","","","","","Feedback","361","2.1.0","292518","65b7b0e4e6fa7d632205b4b6","Prolific","1","","null","","50","2","","null","","","","","","","","","","","","",""
"","","","","","","","","","","","Confidence Rating","362","2.1.0","295121","65b7b0e4e6fa7d632205b4b6","Prolific","1","","2601","","50","2","<h3>Rate your confidence:</h3>
            <div id=""conf1"" class=""conf"" style=""height:25px; width:154px; margin-top:2px; margin-left:15px;""></div>
            <div id=""conf2"" class=""conf"" style=""height:25px; width:154px; margin-top:2px; margin-left:169px;""></div>
            <div id=""conf3"" class=""conf"" style=""height:25px; width:154px; margin-top:2px; margin-left:323px;""></div>
            <div id=""conf4"" class=""conf"" style=""height:25px; width:154px; margin-top:2px; margin-left:477px;""></div>
          <div id=""conf5"" class=""conf"" style=""height:25px; width:154px; margin-top:2px; margin-left:631px;""></div>","2","","","","","","","","","","","","50",""
"","","","","","","","","","","","Summary Trial","363","2.1.0","295122","65b7b0e4e6fa7d632205b4b6","Prolific","1","","401","","50","2","","w","334","313","","","","true","3.049999999999999","1","","Test","21","","2"
"","","","","","","","","","","","html-keyboard-response","365","2.1.0","296135","65b7b0e4e6fa7d632205b4b6","Prolific","1","","null","","51","2","<p style=""font-size: 70pt;"">+</p>","null","","","","","","","","","","","","",""
"","","","","","","","","","","","Stimulus Presentation","366","2.1.0","296447","65b7b0e4e6fa7d632205b4b6","Prolific","1","","null","","51","2","","null","332","313","313","19","w","true","2.949999999999999","","","","","",""
"","","","","","","","","","","","Stimulus Response","367","2.1.0","296896","65b7b0e4e6fa7d632205b4b6","Prolific","1","","448","","51","2","","w","","","","","","","","1","","","","",""
"","","","","","","","","","","","Feedback","368","2.1.0","297405","65b7b0e4e6fa7d632205b4b6","Prolific","1","","null","","51","2","","null","","","","","","","","","","","","",""
"","","","","","","","","","","","Confidence Rating","369","2.1.0","299672","65b7b0e4e6fa7d632205b4b6","Prolific","1","","2265","","51","2","<h3>Rate your confidence:</h3>
            <div id=""conf1"" class=""conf"" style=""height:25px; width:154px; margin-top:2px; margin-left:15px;""></div>
            <div id=""conf2"" class=""conf"" style=""height:25px; width:154px; margin-top:2px; margin-left:169px;""></div>
            <div id=""conf3"" class=""conf"" style=""height:25px; width:154px; margin-top:2px; margin-left:323px;""></div>
            <div id=""conf4"" class=""conf"" style=""height:25px; width:154px; margin-top:2px; margin-left:477px;""></div>
          <div id=""conf5"" class=""conf"" style=""height:25px; width:154px; margin-top:2px; margin-left:631px;""></div>","4","","","","","","","","","","","","50",""
"","","","","","","","","","","","Summary Trial","370","2.1.0","299673","65b7b0e4e6fa7d632205b4b6","Prolific","1","","448","","51","2","","w","332","313","","","","true","2.949999999999999","1","","Test","19","","4"
"","","","","","","","","","","","html-keyboard-response","372","2.1.0","300691","65b7b0e4e6fa7d632205b4b6","Prolific","1","","null","","52","2","<p style=""font-size: 70pt;"">+</p>","null","","","","","","","","","","","","",""
"","","","","","","","","","","","Stimulus Presentation","373","2.1.0","301000","65b7b0e4e6fa7d632205b4b6","Prolific","1","","null","","52","2","","null","313","332","313","19","e","false","2.949999999999999","","","","","",""
"","","","","","","","","","","","Stimulus Response","374","2.1.0","301457","65b7b0e4e6fa7d632205b4b6","Prolific","1","","455","","52","2","","w","","","","","","","","0","","","","",""
"","","","","","","","","","","","Feedback","375","2.1.0","301972","65b7b0e4e6fa7d632205b4b6","Prolific","1","","null","","52","2","","null","","","","","","","","","","","","",""
"","","","","","","","","","","","Confidence Rating","376","2.1.0","304337","65b7b0e4e6fa7d632205b4b6","Prolific","1","","2363","","52","2","<h3>Rate your confidence:</h3>
            <div id=""conf1"" class=""conf"" style=""height:25px; width:154px; margin-top:2px; margin-left:15px;""></div>
            <div id=""conf2"" class=""conf"" style=""height:25px; width:154px; margin-top:2px; margin-left:169px;""></div>
            <div id=""conf3"" class=""conf"" style=""height:25px; width:154px; margin-top:2px; margin-left:323px;""></div>
            <div id=""conf4"" class=""conf"" style=""height:25px; width:154px; margin-top:2px; margin-left:477px;""></div>
          <div id=""conf5"" class=""conf"" style=""height:25px; width:154px; margin-top:2px; margin-left:631px;""></div>","3","","","","","","","","","","","","50",""
"","","","","","","","","","","","Summary Trial","377","2.1.0","304338","65b7b0e4e6fa7d632205b4b6","Prolific","1","","455","","52","2","","w","313","332","","","","false","2.949999999999999","0","","Test","19","","3"
"","","","","","","","","","","","html-keyboard-response","379","2.1.0","305345","65b7b0e4e6fa7d632205b4b6","Prolific","1","","null","","53","2","<p style=""font-size: 70pt;"">+</p>","null","","","","","","","","","","","","",""
"","","","","","","","","","","","Stimulus Presentation","380","2.1.0","305650","65b7b0e4e6fa7d632205b4b6","Prolific","1","","null","","53","2","","null","313","334","313","21","e","false","3.049999999999999","","","","","",""
"","","","","","","","","","","","Stimulus Response","381","2.1.0","306187","65b7b0e4e6fa7d632205b4b6","Prolific","1","","536","","53","2","","e","","","","","","","","1","","","","",""
"","","","","","","","","","","","Feedback","382","2.1.0","306707","65b7b0e4e6fa7d632205b4b6","Prolific","1","","null","","53","2","","null","","","","","","","","","","","","",""
"","","","","","","","","","","","Confidence Rating","383","2.1.0","309038","65b7b0e4e6fa7d632205b4b6","Prolific","1","","2328","","53","2","<h3>Rate your confidence:</h3>
            <div id=""conf1"" class=""conf"" style=""height:25px; width:154px; margin-top:2px; margin-left:15px;""></div>
            <div id=""conf2"" class=""conf"" style=""height:25px; width:154px; margin-top:2px; margin-left:169px;""></div>
            <div id=""conf3"" class=""conf"" style=""height:25px; width:154px; margin-top:2px; margin-left:323px;""></div>
            <div id=""conf4"" class=""conf"" style=""height:25px; width:154px; margin-top:2px; margin-left:477px;""></div>
          <div id=""conf5"" class=""conf"" style=""height:25px; width:154px; margin-top:2px; margin-left:631px;""></div>","2","","","","","","","","","","","","50",""
"","","","","","","","","","","","Summary Trial","384","2.1.0","309039","65b7b0e4e6fa7d632205b4b6","Prolific","1","","536","","53","2","","e","313","334","","","","false","3.049999999999999","1","","Test","21","","2"
"","","","","","","","","","","","html-keyboard-response","386","2.1.0","310049","65b7b0e4e6fa7d632205b4b6","Prolific","1","","null","","54","2","<p style=""font-size: 70pt;"">+</p>","null","","","","","","","","","","","","",""
"","","","","","","","","","","","Stimulus Presentation","387","2.1.0","310358","65b7b0e4e6fa7d632205b4b6","Prolific","1","","null","","54","2","","null","334","313","313","21","w","true","3.049999999999999","","","","","",""
"","","","","","","","","","","","Stimulus Response","388","2.1.0","310721","65b7b0e4e6fa7d632205b4b6","Prolific","1","","361","","54","2","","w","","","","","","","","1","","","","",""
"","","","","","","","","","","","Feedback","389","2.1.0","311238","65b7b0e4e6fa7d632205b4b6","Prolific","1","","null","","54","2","","null","","","","","","","","","","","","",""
"","","","","","","","","","","","Confidence Rating","390","2.1.0","314771","65b7b0e4e6fa7d632205b4b6","Prolific","1","","3530","","54","2","<h3>Rate your confidence:</h3>
            <div id=""conf1"" class=""conf"" style=""height:25px; width:154px; margin-top:2px; margin-left:15px;""></div>
            <div id=""conf2"" class=""conf"" style=""height:25px; width:154px; margin-top:2px; margin-left:169px;""></div>
            <div id=""conf3"" class=""conf"" style=""height:25px; width:154px; margin-top:2px; margin-left:323px;""></div>
            <div id=""conf4"" class=""conf"" style=""height:25px; width:154px; margin-top:2px; margin-left:477px;""></div>
          <div id=""conf5"" class=""conf"" style=""height:25px; width:154px; margin-top:2px; margin-left:631px;""></div>","5","","","","","","","","","","","","50",""
"","","","","","","","","","","","Summary Trial","391","2.1.0","314772","65b7b0e4e6fa7d632205b4b6","Prolific","1","","361","","54","2","","w","334","313","","","","true","3.049999999999999","1","","Test","21","","5"
"","","","","","","","","","","","html-keyboard-response","393","2.1.0","315782","65b7b0e4e6fa7d632205b4b6","Prolific","1","","null","","55","2","<p style=""font-size: 70pt;"">+</p>","null","","","","","","","","","","","","",""
"","","","","","","","","","","","Stimulus Presentation","394","2.1.0","316100","65b7b0e4e6fa7d632205b4b6","Prolific","1","","null","","55","2","","null","313","332","313","19","e","false","2.949999999999999","","","","","",""
"","","","","","","","","","","","Stimulus Response","395","2.1.0","316473","65b7b0e4e6fa7d632205b4b6","Prolific","1","","372","","55","2","","w","","","","","","","","0","","","","",""
"","","","","","","","","","","","Feedback","396","2.1.0","316986","65b7b0e4e6fa7d632205b4b6","Prolific","1","","null","","55","2","","null","","","","","","","","","","","","",""
"","","","","","","","","","","","Confidence Rating","397","2.1.0","319272","65b7b0e4e6fa7d632205b4b6","Prolific","1","","2284","","55","2","<h3>Rate your confidence:</h3>
            <div id=""conf1"" class=""conf"" style=""height:25px; width:154px; margin-top:2px; margin-left:15px;""></div>
            <div id=""conf2"" class=""conf"" style=""height:25px; width:154px; margin-top:2px; margin-left:169px;""></div>
            <div id=""conf3"" class=""conf"" style=""height:25px; width:154px; margin-top:2px; margin-left:323px;""></div>
            <div id=""conf4"" class=""conf"" style=""height:25px; width:154px; margin-top:2px; margin-left:477px;""></div>
          <div id=""conf5"" class=""conf"" style=""height:25px; width:154px; margin-top:2px; margin-left:631px;""></div>","3","","","","","","","","","","","","50",""
"","","","","","","","","","","","Summary Trial","398","2.1.0","319273","65b7b0e4e6fa7d632205b4b6","Prolific","1","","372","","55","2","","w","313","332","","","","false","2.949999999999999","0","","Test","19","","3"
"","","","","","","","","","","","html-keyboard-response","400","2.1.0","320285","65b7b0e4e6fa7d632205b4b6","Prolific","1","","null","","56","2","<p style=""font-size: 70pt;"">+</p>","null","","","","","","","","","","","","",""
"","","","","","","","","","","","Stimulus Presentation","401","2.1.0","320598","65b7b0e4e6fa7d632205b4b6","Prolific","1","","null","","56","2","","null","334","313","313","21","w","true","3.049999999999999","","","","","",""
"","","","","","","","","","","","Stimulus Response","402","2.1.0","321242","65b7b0e4e6fa7d632205b4b6","Prolific","1","","642","","56","2","","w","","","","","","","","1","","","","",""
"","","","","","","","","","","","Feedback","403","2.1.0","321758","65b7b0e4e6fa7d632205b4b6","Prolific","1","","null","","56","2","","null","","","","","","","","","","","","",""
"","","","","","","","","","","","Confidence Rating","404","2.1.0","324488","65b7b0e4e6fa7d632205b4b6","Prolific","1","","2728","","56","2","<h3>Rate your confidence:</h3>
            <div id=""conf1"" class=""conf"" style=""height:25px; width:154px; margin-top:2px; margin-left:15px;""></div>
            <div id=""conf2"" class=""conf"" style=""height:25px; width:154px; margin-top:2px; margin-left:169px;""></div>
            <div id=""conf3"" class=""conf"" style=""height:25px; width:154px; margin-top:2px; margin-left:323px;""></div>
            <div id=""conf4"" class=""conf"" style=""height:25px; width:154px; margin-top:2px; margin-left:477px;""></div>
          <div id=""conf5"" class=""conf"" style=""height:25px; width:154px; margin-top:2px; margin-left:631px;""></div>","1","","","","","","","","","","","","50",""
"","","","","","","","","","","","Summary Trial","405","2.1.0","324489","65b7b0e4e6fa7d632205b4b6","Prolific","1","","642","","56","2","","w","334","313","","","","true","3.049999999999999","1","","Test","21","","1"
"","","","","","","","","","","","html-keyboard-response","407","2.1.0","325501","65b7b0e4e6fa7d632205b4b6","Prolific","1","","null","","57","2","<p style=""font-size: 70pt;"">+</p>","null","","","","","","","","","","","","",""
"","","","","","","","","","","","Stimulus Presentation","408","2.1.0","325813","65b7b0e4e6fa7d632205b4b6","Prolific","1","","null","","57","2","","null","313","334","313","21","e","false","3.049999999999999","","","","","",""
"","","","","","","","","","","","Stimulus Response","409","2.1.0","326330","65b7b0e4e6fa7d632205b4b6","Prolific","1","","517","","57","2","","e","","","","","","","","1","","","","",""
"","","","","","","","","","","","Feedback","410","2.1.0","326842","65b7b0e4e6fa7d632205b4b6","Prolific","1","","null","","57","2","","null","","","","","","","","","","","","",""
"","","","","","","","","","","","Confidence Rating","411","2.1.0","329770","65b7b0e4e6fa7d632205b4b6","Prolific","1","","2926","","57","2","<h3>Rate your confidence:</h3>
            <div id=""conf1"" class=""conf"" style=""height:25px; width:154px; margin-top:2px; margin-left:15px;""></div>
            <div id=""conf2"" class=""conf"" style=""height:25px; width:154px; margin-top:2px; margin-left:169px;""></div>
            <div id=""conf3"" class=""conf"" style=""height:25px; width:154px; margin-top:2px; margin-left:323px;""></div>
            <div id=""conf4"" class=""conf"" style=""height:25px; width:154px; margin-top:2px; margin-left:477px;""></div>
          <div id=""conf5"" class=""conf"" style=""height:25px; width:154px; margin-top:2px; margin-left:631px;""></div>","2","","","","","","","","","","","","50",""
"","","","","","","","","","","","Summary Trial","412","2.1.0","329772","65b7b0e4e6fa7d632205b4b6","Prolific","1","","517","","57","2","","e","313","334","","","","false","3.049999999999999","1","","Test","21","","2"
"","","","","","","","","","","","html-keyboard-response","414","2.1.0","330786","65b7b0e4e6fa7d632205b4b6","Prolific","1","","null","","58","2","<p style=""font-size: 70pt;"">+</p>","null","","","","","","","","","","","","",""
"","","","","","","","","","","","Stimulus Presentation","415","2.1.0","331099","65b7b0e4e6fa7d632205b4b6","Prolific","1","","null","","58","2","","null","332","313","313","19","w","true","2.949999999999999","","","","","",""
"","","","","","","","","","","","Stimulus Response","416","2.1.0","331607","65b7b0e4e6fa7d632205b4b6","Prolific","1","","508","","58","2","","w","","","","","","","","1","","","","",""
"","","","","","","","","","","","Feedback","417","2.1.0","332122","65b7b0e4e6fa7d632205b4b6","Prolific","1","","null","","58","2","","null","","","","","","","","","","","","",""
"","","","","","","","","","","","Confidence Rating","418","2.1.0","340490","65b7b0e4e6fa7d632205b4b6","Prolific","1","","8365","","58","2","<h3>Rate your confidence:</h3>
            <div id=""conf1"" class=""conf"" style=""height:25px; width:154px; margin-top:2px; margin-left:15px;""></div>
            <div id=""conf2"" class=""conf"" style=""height:25px; width:154px; margin-top:2px; margin-left:169px;""></div>
            <div id=""conf3"" class=""conf"" style=""height:25px; width:154px; margin-top:2px; margin-left:323px;""></div>
            <div id=""conf4"" class=""conf"" style=""height:25px; width:154px; margin-top:2px; margin-left:477px;""></div>
          <div id=""conf5"" class=""conf"" style=""height:25px; width:154px; margin-top:2px; margin-left:631px;""></div>","1","","","","","","","","","","","","50",""
"","","","","","","","","","","","Summary Trial","419","2.1.0","340491","65b7b0e4e6fa7d632205b4b6","Prolific","1","","508","","58","2","","w","332","313","","","","true","2.949999999999999","1","","Test","19","","1"
"","","","","","","","","","","","html-keyboard-response","421","2.1.0","341503","65b7b0e4e6fa7d632205b4b6","Prolific","1","","null","","59","2","<p style=""font-size: 70pt;"">+</p>","null","","","","","","","","","","","","",""
"","","","","","","","","","","","Stimulus Presentation","422","2.1.0","341813","65b7b0e4e6fa7d632205b4b6","Prolific","1","","null","","59","2","","null","313","332","313","19","e","false","2.949999999999999","","","","","",""
"","","","","","","","","","","","Stimulus Response","423","2.1.0","342614","65b7b0e4e6fa7d632205b4b6","Prolific","1","","799","","59","2","","w","","","","","","","","0","","","","",""
"","","","","","","","","","","","Feedback","424","2.1.0","343131","65b7b0e4e6fa7d632205b4b6","Prolific","1","","null","","59","2","","null","","","","","","","","","","","","",""
"","","","","","","","","","","","Confidence Rating","425","2.1.0","345754","65b7b0e4e6fa7d632205b4b6","Prolific","1","","2621","","59","2","<h3>Rate your confidence:</h3>
            <div id=""conf1"" class=""conf"" style=""height:25px; width:154px; margin-top:2px; margin-left:15px;""></div>
            <div id=""conf2"" class=""conf"" style=""height:25px; width:154px; margin-top:2px; margin-left:169px;""></div>
            <div id=""conf3"" class=""conf"" style=""height:25px; width:154px; margin-top:2px; margin-left:323px;""></div>
            <div id=""conf4"" class=""conf"" style=""height:25px; width:154px; margin-top:2px; margin-left:477px;""></div>
          <div id=""conf5"" class=""conf"" style=""height:25px; width:154px; margin-top:2px; margin-left:631px;""></div>","1","","","","","","","","","","","","50",""
"","","","","","","","","","","","Summary Trial","426","2.1.0","345755","65b7b0e4e6fa7d632205b4b6","Prolific","1","","799","","59","2","","w","313","332","","","","false","2.949999999999999","0","","Test","19","","1"
"","","","","","","","","","","","html-keyboard-response","428","2.1.0","346769","65b7b0e4e6fa7d632205b4b6","Prolific","1","","null","","60","2","<p style=""font-size: 70pt;"">+</p>","null","","","","","","","","","","","","",""
"","","","","","","","","","","","Stimulus Presentation","429","2.1.0","347083","65b7b0e4e6fa7d632205b4b6","Prolific","1","","null","","60","2","","null","334","313","313","21","w","true","3.049999999999999","","","","","",""
"","","","","","","","","","","","Stimulus Response","430","2.1.0","347351","65b7b0e4e6fa7d632205b4b6","Prolific","1","","266","","60","2","","w","","","","","","","","1","","","","",""
"","","","","","","","","","","","Feedback","431","2.1.0","347858","65b7b0e4e6fa7d632205b4b6","Prolific","1","","null","","60","2","","null","","","","","","","","","","","","",""
"","","","","","","","","","","","Confidence Rating","432","2.1.0","349962","65b7b0e4e6fa7d632205b4b6","Prolific","1","","2102","","60","2","<h3>Rate your confidence:</h3>
            <div id=""conf1"" class=""conf"" style=""height:25px; width:154px; margin-top:2px; margin-left:15px;""></div>
            <div id=""conf2"" class=""conf"" style=""height:25px; width:154px; margin-top:2px; margin-left:169px;""></div>
            <div id=""conf3"" class=""conf"" style=""height:25px; width:154px; margin-top:2px; margin-left:323px;""></div>
            <div id=""conf4"" class=""conf"" style=""height:25px; width:154px; margin-top:2px; margin-left:477px;""></div>
          <div id=""conf5"" class=""conf"" style=""height:25px; width:154px; margin-top:2px; margin-left:631px;""></div>","4","","","","","","","","","","","","50",""
"","","","","","","","","","","","Summary Trial","433","2.1.0","349963","65b7b0e4e6fa7d632205b4b6","Prolific","1","","266","","60","2","","w","334","313","","","","true","3.049999999999999","1","","Test","21","","4"
"","","","","","","","","","","","html-keyboard-response","435","2.1.0","350967","65b7b0e4e6fa7d632205b4b6","Prolific","1","","null","","61","2","<p style=""font-size: 70pt;"">+</p>","null","","","","","","","","","","","","",""
"","","","","","","","","","","","Stimulus Presentation","436","2.1.0","351282","65b7b0e4e6fa7d632205b4b6","Prolific","1","","null","","61","2","","null","313","334","313","21","e","false","3.049999999999999","","","","","",""
"","","","","","","","","","","","Stimulus Response","437","2.1.0","351913","65b7b0e4e6fa7d632205b4b6","Prolific","1","","631","","61","2","","w","","","","","","","","0","","","","",""
"","","","","","","","","","","","Feedback","438","2.1.0","352422","65b7b0e4e6fa7d632205b4b6","Prolific","1","","null","","61","2","","null","","","","","","","","","","","","",""
"","","","","","","","","","","","Confidence Rating","439","2.1.0","358588","65b7b0e4e6fa7d632205b4b6","Prolific","1","","6164","","61","2","<h3>Rate your confidence:</h3>
            <div id=""conf1"" class=""conf"" style=""height:25px; width:154px; margin-top:2px; margin-left:15px;""></div>
            <div id=""conf2"" class=""conf"" style=""height:25px; width:154px; margin-top:2px; margin-left:169px;""></div>
            <div id=""conf3"" class=""conf"" style=""height:25px; width:154px; margin-top:2px; margin-left:323px;""></div>
            <div id=""conf4"" class=""conf"" style=""height:25px; width:154px; margin-top:2px; margin-left:477px;""></div>
          <div id=""conf5"" class=""conf"" style=""height:25px; width:154px; margin-top:2px; margin-left:631px;""></div>","1","","","","","","","","","","","","50",""
"","","","","","","","","","","","Summary Trial","440","2.1.0","358589","65b7b0e4e6fa7d632205b4b6","Prolific","1","","631","","61","2","","w","313","334","","","","false","3.049999999999999","0","","Test","21","","1"
"","","","","","","","","","","","html-keyboard-response","442","2.1.0","359602","65b7b0e4e6fa7d632205b4b6","Prolific","1","","null","","62","2","<p style=""font-size: 70pt;"">+</p>","null","","","","","","","","","","","","",""
"","","","","","","","","","","","Stimulus Presentation","443","2.1.0","359914","65b7b0e4e6fa7d632205b4b6","Prolific","1","","null","","62","2","","null","336","313","313","23","w","true","3.149999999999999","","","","","",""
"","","","","","","","","","","","Stimulus Response","444","2.1.0","360362","65b7b0e4e6fa7d632205b4b6","Prolific","1","","447","","62","2","","w","","","","","","","","1","","","","",""
"","","","","","","","","","","","Feedback","445","2.1.0","360864","65b7b0e4e6fa7d632205b4b6","Prolific","1","","null","","62","2","","null","","","","","","","","","","","","",""
