"width","height","webaudio","browser","browser_version","mobile","os","fullscreen","vsync_rate","webcam","microphone","trial_type","trial_index","plugin_version","time_elapsed","participant_id","Source","condition","success","rt","view_history","trialnum","blocknum","stimulus","response","leftDots","rightDots","baseline","increment","correct_key","target_left","current_log","correct","value","phase","dot_difference","slider_start","confidence"
"1366","679","true","chrome","131.0.0","false","Windows 10","true","61.23","false","false","browser-check","0","2.1.0","990","67806a2cfa790bea4d4dc92d","Prolific","1","","","","","","","","","","","","","","","","","","","",""
"","","","","","","","","","","","fullscreen","1","2.1.0","21528","67806a2cfa790bea4d4dc92d","Prolific","1","true","19520","","","","","","","","","","","","","","","","","",""
"","","","","","","","","","","","instructions","2","2.1.0","41627","67806a2cfa790bea4d4dc92d","Prolific","1","","20097","[{""page_index"":0,""viewing_time"":20097}]","","","","","","","","","","","","","","","","",""
"","","","","","","","","","","","instructions","5","2.1.0","77621","67806a2cfa790bea4d4dc92d","Prolific","1","","35993","[{""page_index"":0,""viewing_time"":26598},{""page_index"":1,""viewing_time"":9395}]","","","","","","","","","","","","","","","","",""
"","","","","","","","","","","","html-keyboard-response","7","2.1.0","78634","67806a2cfa790bea4d4dc92d","Prolific","1","","null","","1","1","<p style=""font-size: 70pt;"">+</p>","null","","","","","","","","","","","","",""
"","","","","","","","","","","","Stimulus Presentation","8","2.1.0","78958","67806a2cfa790bea4d4dc92d","Prolific","1","","null","","1","1","","null","313","383","313","70","e","false","4.25","","","","","",""
"","","","","","","","","","","","Stimulus Response","9","2.1.0","79969","67806a2cfa790bea4d4dc92d","Prolific","1","","1008","","1","1","","w","","","","","","","","0","","","","",""
"","","","","","","","","","","","Feedback","10","2.1.0","80487","67806a2cfa790bea4d4dc92d","Prolific","1","","null","","1","1","","null","","","","","","","","","","","","",""
"","","","","","","","","","","","Summary Trial","12","2.1.0","80491","67806a2cfa790bea4d4dc92d","Prolific","1","","1008","","1","1","","w","313","383","","","","false","4.25","0","","Practice","70","",""
"","","","","","","","","","","","html-keyboard-response","14","2.1.0","81496","67806a2cfa790bea4d4dc92d","Prolific","1","","null","","2","1","<p style=""font-size: 70pt;"">+</p>","null","","","","","","","","","","","","",""
"","","","","","","","","","","","Stimulus Presentation","15","2.1.0","81814","67806a2cfa790bea4d4dc92d","Prolific","1","","null","","2","1","","null","418","313","313","105","w","true","4.65","","","","","",""
"","","","","","","","","","","","Stimulus Response","16","2.1.0","82415","67806a2cfa790bea4d4dc92d","Prolific","1","","597","","2","1","","w","","","","","","","","1","","","","",""
"","","","","","","","","","","","Feedback","17","2.1.0","82930","67806a2cfa790bea4d4dc92d","Prolific","1","","null","","2","1","","null","","","","","","","","","","","","",""
"","","","","","","","","","","","Summary Trial","19","2.1.0","82932","67806a2cfa790bea4d4dc92d","Prolific","1","","597","","2","1","","w","418","313","","","","true","4.65","1","","Practice","105","",""
"","","","","","","","","","","","html-keyboard-response","21","2.1.0","83944","67806a2cfa790bea4d4dc92d","Prolific","1","","null","","3","1","<p style=""font-size: 70pt;"">+</p>","null","","","","","","","","","","","","",""
"","","","","","","","","","","","Stimulus Presentation","22","2.1.0","84255","67806a2cfa790bea4d4dc92d","Prolific","1","","null","","3","1","","null","418","313","313","105","w","true","4.65","","","","","",""
"","","","","","","","","","","","Stimulus Response","23","2.1.0","84752","67806a2cfa790bea4d4dc92d","Prolific","1","","493","","3","1","","w","","","","","","","","1","","","","",""
"","","","","","","","","","","","Feedback","24","2.1.0","85269","67806a2cfa790bea4d4dc92d","Prolific","1","","null","","3","1","","null","","","","","","","","","","","","",""
"","","","","","","","","","","","Summary Trial","26","2.1.0","85269","67806a2cfa790bea4d4dc92d","Prolific","1","","493","","3","1","","w","418","313","","","","true","4.65","1","","Practice","105","",""
"","","","","","","","","","","","html-keyboard-response","28","2.1.0","86277","67806a2cfa790bea4d4dc92d","Prolific","1","","null","","4","1","<p style=""font-size: 70pt;"">+</p>","null","","","","","","","","","","","","",""
"","","","","","","","","","","","Stimulus Presentation","29","2.1.0","86605","67806a2cfa790bea4d4dc92d","Prolific","1","","null","","4","1","","null","313","383","313","70","e","false","4.25","","","","","",""
"","","","","","","","","","","","Stimulus Response","30","2.1.0","87136","67806a2cfa790bea4d4dc92d","Prolific","1","","528","","4","1","","e","","","","","","","","1","","","","",""
"","","","","","","","","","","","Feedback","31","2.1.0","87649","67806a2cfa790bea4d4dc92d","Prolific","1","","null","","4","1","","null","","","","","","","","","","","","",""
"","","","","","","","","","","","Summary Trial","33","2.1.0","87649","67806a2cfa790bea4d4dc92d","Prolific","1","","528","","4","1","","e","313","383","","","","false","4.25","1","","Practice","70","",""
"","","","","","","","","","","","html-keyboard-response","35","2.1.0","88660","67806a2cfa790bea4d4dc92d","Prolific","1","","null","","5","1","<p style=""font-size: 70pt;"">+</p>","null","","","","","","","","","","","","",""
"","","","","","","","","","","","Stimulus Presentation","36","2.1.0","88974","67806a2cfa790bea4d4dc92d","Prolific","1","","null","","5","1","","null","313","383","313","70","e","false","4.25","","","","","",""
"","","","","","","","","","","","Stimulus Response","37","2.1.0","89443","67806a2cfa790bea4d4dc92d","Prolific","1","","466","","5","1","","e","","","","","","","","1","","","","",""
"","","","","","","","","","","","Feedback","38","2.1.0","89953","67806a2cfa790bea4d4dc92d","Prolific","1","","null","","5","1","","null","","","","","","","","","","","","",""
"","","","","","","","","","","","Summary Trial","40","2.1.0","89954","67806a2cfa790bea4d4dc92d","Prolific","1","","466","","5","1","","e","313","383","","","","false","4.25","1","","Practice","70","",""
"","","","","","","","","","","","html-keyboard-response","42","2.1.0","90960","67806a2cfa790bea4d4dc92d","Prolific","1","","null","","6","1","<p style=""font-size: 70pt;"">+</p>","null","","","","","","","","","","","","",""
"","","","","","","","","","","","Stimulus Presentation","43","2.1.0","91269","67806a2cfa790bea4d4dc92d","Prolific","1","","null","","6","1","","null","360","313","313","47","w","true","3.85","","","","","",""
"","","","","","","","","","","","Stimulus Response","44","2.1.0","91853","67806a2cfa790bea4d4dc92d","Prolific","1","","580","","6","1","","w","","","","","","","","1","","","","",""
"","","","","","","","","","","","Feedback","45","2.1.0","92365","67806a2cfa790bea4d4dc92d","Prolific","1","","null","","6","1","","null","","","","","","","","","","","","",""
"","","","","","","","","","","","Summary Trial","47","2.1.0","92367","67806a2cfa790bea4d4dc92d","Prolific","1","","580","","6","1","","w","360","313","","","","true","3.85","1","","Practice","47","",""
"","","","","","","","","","","","html-keyboard-response","49","2.1.0","93380","67806a2cfa790bea4d4dc92d","Prolific","1","","null","","7","1","<p style=""font-size: 70pt;"">+</p>","null","","","","","","","","","","","","",""
"","","","","","","","","","","","Stimulus Presentation","50","2.1.0","93691","67806a2cfa790bea4d4dc92d","Prolific","1","","null","","7","1","","null","360","313","313","47","w","true","3.85","","","","","",""
"","","","","","","","","","","","Stimulus Response","51","2.1.0","94455","67806a2cfa790bea4d4dc92d","Prolific","1","","760","","7","1","","w","","","","","","","","1","","","","",""
"","","","","","","","","","","","Feedback","52","2.1.0","94973","67806a2cfa790bea4d4dc92d","Prolific","1","","null","","7","1","","null","","","","","","","","","","","","",""
"","","","","","","","","","","","Summary Trial","54","2.1.0","94975","67806a2cfa790bea4d4dc92d","Prolific","1","","760","","7","1","","w","360","313","","","","true","3.85","1","","Practice","47","",""
"","","","","","","","","","","","html-keyboard-response","56","2.1.0","95992","67806a2cfa790bea4d4dc92d","Prolific","1","","null","","8","1","<p style=""font-size: 70pt;"">+</p>","null","","","","","","","","","","","","",""
"","","","","","","","","","","","Stimulus Presentation","57","2.1.0","96308","67806a2cfa790bea4d4dc92d","Prolific","1","","null","","8","1","","null","313","351","313","38","e","false","3.65","","","","","",""
"","","","","","","","","","","","Stimulus Response","58","2.1.0","97293","67806a2cfa790bea4d4dc92d","Prolific","1","","984","","8","1","","e","","","","","","","","1","","","","",""
"","","","","","","","","","","","Feedback","59","2.1.0","97803","67806a2cfa790bea4d4dc92d","Prolific","1","","null","","8","1","","null","","","","","","","","","","","","",""
"","","","","","","","","","","","Summary Trial","61","2.1.0","97804","67806a2cfa790bea4d4dc92d","Prolific","1","","984","","8","1","","e","313","351","","","","false","3.65","1","","Practice","38","",""
"","","","","","","","","","","","html-keyboard-response","63","2.1.0","98819","67806a2cfa790bea4d4dc92d","Prolific","1","","null","","9","1","<p style=""font-size: 70pt;"">+</p>","null","","","","","","","","","","","","",""
"","","","","","","","","","","","Stimulus Presentation","64","2.1.0","99139","67806a2cfa790bea4d4dc92d","Prolific","1","","null","","9","1","","null","351","313","313","38","w","true","3.65","","","","","",""
"","","","","","","","","","","","Stimulus Response","65","2.1.0","99830","67806a2cfa790bea4d4dc92d","Prolific","1","","689","","9","1","","w","","","","","","","","1","","","","",""
"","","","","","","","","","","","Feedback","66","2.1.0","100347","67806a2cfa790bea4d4dc92d","Prolific","1","","null","","9","1","","null","","","","","","","","","","","","",""
"","","","","","","","","","","","Summary Trial","68","2.1.0","100349","67806a2cfa790bea4d4dc92d","Prolific","1","","689","","9","1","","w","351","313","","","","true","3.65","1","","Practice","38","",""
"","","","","","","","","","","","html-keyboard-response","70","2.1.0","101367","67806a2cfa790bea4d4dc92d","Prolific","1","","null","","10","1","<p style=""font-size: 70pt;"">+</p>","null","","","","","","","","","","","","",""
"","","","","","","","","","","","Stimulus Presentation","71","2.1.0","101679","67806a2cfa790bea4d4dc92d","Prolific","1","","null","","10","1","","null","313","345","313","32","e","false","3.4499999999999997","","","","","",""
"","","","","","","","","","","","Stimulus Response","72","2.1.0","102841","67806a2cfa790bea4d4dc92d","Prolific","1","","1158","","10","1","","w","","","","","","","","0","","","","",""
"","","","","","","","","","","","Feedback","73","2.1.0","103352","67806a2cfa790bea4d4dc92d","Prolific","1","","null","","10","1","","null","","","","","","","","","","","","",""
"","","","","","","","","","","","Summary Trial","75","2.1.0","103354","67806a2cfa790bea4d4dc92d","Prolific","1","","1158","","10","1","","w","313","345","","","","false","3.4499999999999997","0","","Practice","32","",""
"","","","","","","","","","","","html-keyboard-response","77","2.1.0","104366","67806a2cfa790bea4d4dc92d","Prolific","1","","null","","11","1","<p style=""font-size: 70pt;"">+</p>","null","","","","","","","","","","","","",""
"","","","","","","","","","","","Stimulus Presentation","78","2.1.0","104689","67806a2cfa790bea4d4dc92d","Prolific","1","","null","","11","1","","null","313","351","313","38","e","false","3.65","","","","","",""
"","","","","","","","","","","","Stimulus Response","79","2.1.0","105214","67806a2cfa790bea4d4dc92d","Prolific","1","","522","","11","1","","e","","","","","","","","1","","","","",""
"","","","","","","","","","","","Feedback","80","2.1.0","105724","67806a2cfa790bea4d4dc92d","Prolific","1","","null","","11","1","","null","","","","","","","","","","","","",""
"","","","","","","","","","","","Summary Trial","82","2.1.0","105724","67806a2cfa790bea4d4dc92d","Prolific","1","","522","","11","1","","e","313","351","","","","false","3.65","1","","Practice","38","",""
"","","","","","","","","","","","html-keyboard-response","84","2.1.0","106735","67806a2cfa790bea4d4dc92d","Prolific","1","","null","","12","1","<p style=""font-size: 70pt;"">+</p>","null","","","","","","","","","","","","",""
"","","","","","","","","","","","Stimulus Presentation","85","2.1.0","107048","67806a2cfa790bea4d4dc92d","Prolific","1","","null","","12","1","","null","351","313","313","38","w","true","3.65","","","","","",""
"","","","","","","","","","","","Stimulus Response","86","2.1.0","107682","67806a2cfa790bea4d4dc92d","Prolific","1","","631","","12","1","","w","","","","","","","","1","","","","",""
"","","","","","","","","","","","Feedback","87","2.1.0","108199","67806a2cfa790bea4d4dc92d","Prolific","1","","null","","12","1","","null","","","","","","","","","","","","",""
"","","","","","","","","","","","Summary Trial","89","2.1.0","108200","67806a2cfa790bea4d4dc92d","Prolific","1","","631","","12","1","","w","351","313","","","","true","3.65","1","","Practice","38","",""
"","","","","","","","","","","","html-keyboard-response","91","2.1.0","109215","67806a2cfa790bea4d4dc92d","Prolific","1","","null","","13","1","<p style=""font-size: 70pt;"">+</p>","null","","","","","","","","","","","","",""
"","","","","","","","","","","","Stimulus Presentation","92","2.1.0","109526","67806a2cfa790bea4d4dc92d","Prolific","1","","null","","13","1","","null","348","313","313","35","w","true","3.55","","","","","",""
"","","","","","","","","","","","Stimulus Response","93","2.1.0","109861","67806a2cfa790bea4d4dc92d","Prolific","1","","332","","13","1","","w","","","","","","","","1","","","","",""
"","","","","","","","","","","","Feedback","94","2.1.0","110370","67806a2cfa790bea4d4dc92d","Prolific","1","","null","","13","1","","null","","","","","","","","","","","","",""
"","","","","","","","","","","","Summary Trial","96","2.1.0","110372","67806a2cfa790bea4d4dc92d","Prolific","1","","332","","13","1","","w","348","313","","","","true","3.55","1","","Practice","35","",""
"","","","","","","","","","","","html-keyboard-response","98","2.1.0","111387","67806a2cfa790bea4d4dc92d","Prolific","1","","null","","14","1","<p style=""font-size: 70pt;"">+</p>","null","","","","","","","","","","","","",""
"","","","","","","","","","","","Stimulus Presentation","99","2.1.0","111705","67806a2cfa790bea4d4dc92d","Prolific","1","","null","","14","1","","null","313","348","313","35","e","false","3.55","","","","","",""
"","","","","","","","","","","","Stimulus Response","100","2.1.0","112481","67806a2cfa790bea4d4dc92d","Prolific","1","","772","","14","1","","e","","","","","","","","1","","","","",""
"","","","","","","","","","","","Feedback","101","2.1.0","112990","67806a2cfa790bea4d4dc92d","Prolific","1","","null","","14","1","","null","","","","","","","","","","","","",""
"","","","","","","","","","","","Summary Trial","103","2.1.0","112992","67806a2cfa790bea4d4dc92d","Prolific","1","","772","","14","1","","e","313","348","","","","false","3.55","1","","Practice","35","",""
"","","","","","","","","","","","html-keyboard-response","105","2.1.0","114001","67806a2cfa790bea4d4dc92d","Prolific","1","","null","","15","1","<p style=""font-size: 70pt;"">+</p>","null","","","","","","","","","","","","",""
"","","","","","","","","","","","Stimulus Presentation","106","2.1.0","114309","67806a2cfa790bea4d4dc92d","Prolific","1","","null","","15","1","","null","345","313","313","32","w","true","3.4499999999999997","","","","","",""
"","","","","","","","","","","","Stimulus Response","107","2.1.0","115110","67806a2cfa790bea4d4dc92d","Prolific","1","","797","","15","1","","w","","","","","","","","1","","","","",""
"","","","","","","","","","","","Feedback","108","2.1.0","115617","67806a2cfa790bea4d4dc92d","Prolific","1","","null","","15","1","","null","","","","","","","","","","","","",""
"","","","","","","","","","","","Summary Trial","110","2.1.0","115618","67806a2cfa790bea4d4dc92d","Prolific","1","","797","","15","1","","w","345","313","","","","true","3.4499999999999997","1","","Practice","32","",""
"","","","","","","","","","","","html-keyboard-response","112","2.1.0","116626","67806a2cfa790bea4d4dc92d","Prolific","1","","null","","16","1","<p style=""font-size: 70pt;"">+</p>","null","","","","","","","","","","","","",""
"","","","","","","","","","","","Stimulus Presentation","113","2.1.0","116939","67806a2cfa790bea4d4dc92d","Prolific","1","","null","","16","1","","null","313","345","313","32","e","false","3.4499999999999997","","","","","",""
"","","","","","","","","","","","Stimulus Response","114","2.1.0","117547","67806a2cfa790bea4d4dc92d","Prolific","1","","604","","16","1","","w","","","","","","","","0","","","","",""
"","","","","","","","","","","","Feedback","115","2.1.0","118053","67806a2cfa790bea4d4dc92d","Prolific","1","","null","","16","1","","null","","","","","","","","","","","","",""
"","","","","","","","","","","","Summary Trial","117","2.1.0","118054","67806a2cfa790bea4d4dc92d","Prolific","1","","604","","16","1","","w","313","345","","","","false","3.4499999999999997","0","","Practice","32","",""
"","","","","","","","","","","","html-keyboard-response","119","2.1.0","119071","67806a2cfa790bea4d4dc92d","Prolific","1","","null","","17","1","<p style=""font-size: 70pt;"">+</p>","null","","","","","","","","","","","","",""
"","","","","","","","","","","","Stimulus Presentation","120","2.1.0","119386","67806a2cfa790bea4d4dc92d","Prolific","1","","null","","17","1","","null","348","313","313","35","w","true","3.55","","","","","",""
"","","","","","","","","","","","Stimulus Response","121","2.1.0","119754","67806a2cfa790bea4d4dc92d","Prolific","1","","363","","17","1","","w","","","","","","","","1","","","","",""
"","","","","","","","","","","","Feedback","122","2.1.0","120261","67806a2cfa790bea4d4dc92d","Prolific","1","","null","","17","1","","null","","","","","","","","","","","","",""
"","","","","","","","","","","","Summary Trial","124","2.1.0","120263","67806a2cfa790bea4d4dc92d","Prolific","1","","363","","17","1","","w","348","313","","","","true","3.55","1","","Practice","35","",""
"","","","","","","","","","","","html-keyboard-response","126","2.1.0","121282","67806a2cfa790bea4d4dc92d","Prolific","1","","null","","18","1","<p style=""font-size: 70pt;"">+</p>","null","","","","","","","","","","","","",""
"","","","","","","","","","","","Stimulus Presentation","127","2.1.0","121598","67806a2cfa790bea4d4dc92d","Prolific","1","","null","","18","1","","null","313","348","313","35","e","false","3.55","","","","","",""
"","","","","","","","","","","","Stimulus Response","128","2.1.0","122186","67806a2cfa790bea4d4dc92d","Prolific","1","","585","","18","1","","w","","","","","","","","0","","","","",""
"","","","","","","","","","","","Feedback","129","2.1.0","122696","67806a2cfa790bea4d4dc92d","Prolific","1","","null","","18","1","","null","","","","","","","","","","","","",""
"","","","","","","","","","","","Summary Trial","131","2.1.0","122697","67806a2cfa790bea4d4dc92d","Prolific","1","","585","","18","1","","w","313","348","","","","false","3.55","0","","Practice","35","",""
"","","","","","","","","","","","html-keyboard-response","133","2.1.0","123714","67806a2cfa790bea4d4dc92d","Prolific","1","","null","","19","1","<p style=""font-size: 70pt;"">+</p>","null","","","","","","","","","","","","",""
"","","","","","","","","","","","Stimulus Presentation","134","2.1.0","124021","67806a2cfa790bea4d4dc92d","Prolific","1","","null","","19","1","","null","351","313","313","38","w","true","3.65","","","","","",""
"","","","","","","","","","","","Stimulus Response","135","2.1.0","124498","67806a2cfa790bea4d4dc92d","Prolific","1","","475","","19","1","","w","","","","","","","","1","","","","",""
"","","","","","","","","","","","Feedback","136","2.1.0","125014","67806a2cfa790bea4d4dc92d","Prolific","1","","null","","19","1","","null","","","","","","","","","","","","",""
"","","","","","","","","","","","Summary Trial","138","2.1.0","125016","67806a2cfa790bea4d4dc92d","Prolific","1","","475","","19","1","","w","351","313","","","","true","3.65","1","","Practice","38","",""
"","","","","","","","","","","","html-keyboard-response","140","2.1.0","126029","67806a2cfa790bea4d4dc92d","Prolific","1","","null","","20","1","<p style=""font-size: 70pt;"">+</p>","null","","","","","","","","","","","","",""
"","","","","","","","","","","","Stimulus Presentation","141","2.1.0","126347","67806a2cfa790bea4d4dc92d","Prolific","1","","null","","20","1","","null","313","351","313","38","e","false","3.65","","","","","",""
"","","","","","","","","","","","Stimulus Response","142","2.1.0","126715","67806a2cfa790bea4d4dc92d","Prolific","1","","366","","20","1","","e","","","","","","","","1","","","","",""
"","","","","","","","","","","","Feedback","143","2.1.0","127232","67806a2cfa790bea4d4dc92d","Prolific","1","","null","","20","1","","null","","","","","","","","","","","","",""
"","","","","","","","","","","","Summary Trial","145","2.1.0","127234","67806a2cfa790bea4d4dc92d","Prolific","1","","366","","20","1","","e","313","351","","","","false","3.65","1","","Practice","38","",""
"","","","","","","","","","","","html-keyboard-response","147","2.1.0","128240","67806a2cfa790bea4d4dc92d","Prolific","1","","null","","21","1","<p style=""font-size: 70pt;"">+</p>","null","","","","","","","","","","","","",""
"","","","","","","","","","","","Stimulus Presentation","148","2.1.0","128549","67806a2cfa790bea4d4dc92d","Prolific","1","","null","","21","1","","null","313","348","313","35","e","false","3.55","","","","","",""
"","","","","","","","","","","","Stimulus Response","149","2.1.0","130005","67806a2cfa790bea4d4dc92d","Prolific","1","","1452","","21","1","","e","","","","","","","","1","","","","",""
"","","","","","","","","","","","Feedback","150","2.1.0","130512","67806a2cfa790bea4d4dc92d","Prolific","1","","null","","21","1","","null","","","","","","","","","","","","",""
"","","","","","","","","","","","Summary Trial","152","2.1.0","130513","67806a2cfa790bea4d4dc92d","Prolific","1","","1452","","21","1","","e","313","348","","","","false","3.55","1","","Practice","35","",""
"","","","","","","","","","","","html-keyboard-response","154","2.1.0","131530","67806a2cfa790bea4d4dc92d","Prolific","1","","null","","22","1","<p style=""font-size: 70pt;"">+</p>","null","","","","","","","","","","","","",""
"","","","","","","","","","","","Stimulus Presentation","155","2.1.0","131842","67806a2cfa790bea4d4dc92d","Prolific","1","","null","","22","1","","null","348","313","313","35","w","true","3.55","","","","","",""
"","","","","","","","","","","","Stimulus Response","156","2.1.0","132482","67806a2cfa790bea4d4dc92d","Prolific","1","","637","","22","1","","w","","","","","","","","1","","","","",""
"","","","","","","","","","","","Feedback","157","2.1.0","132991","67806a2cfa790bea4d4dc92d","Prolific","1","","null","","22","1","","null","","","","","","","","","","","","",""
"","","","","","","","","","","","Summary Trial","159","2.1.0","132993","67806a2cfa790bea4d4dc92d","Prolific","1","","637","","22","1","","w","348","313","","","","true","3.55","1","","Practice","35","",""
"","","","","","","","","","","","html-keyboard-response","161","2.1.0","133999","67806a2cfa790bea4d4dc92d","Prolific","1","","null","","23","1","<p style=""font-size: 70pt;"">+</p>","null","","","","","","","","","","","","",""
"","","","","","","","","","","","Stimulus Presentation","162","2.1.0","134318","67806a2cfa790bea4d4dc92d","Prolific","1","","null","","23","1","","null","313","345","313","32","e","false","3.4499999999999997","","","","","",""
"","","","","","","","","","","","Stimulus Response","163","2.1.0","134775","67806a2cfa790bea4d4dc92d","Prolific","1","","453","","23","1","","e","","","","","","","","1","","","","",""
"","","","","","","","","","","","Feedback","164","2.1.0","135292","67806a2cfa790bea4d4dc92d","Prolific","1","","null","","23","1","","null","","","","","","","","","","","","",""
"","","","","","","","","","","","Summary Trial","166","2.1.0","135295","67806a2cfa790bea4d4dc92d","Prolific","1","","453","","23","1","","e","313","345","","","","false","3.4499999999999997","1","","Practice","32","",""
"","","","","","","","","","","","html-keyboard-response","168","2.1.0","136306","67806a2cfa790bea4d4dc92d","Prolific","1","","null","","24","1","<p style=""font-size: 70pt;"">+</p>","null","","","","","","","","","","","","",""
"","","","","","","","","","","","Stimulus Presentation","169","2.1.0","136624","67806a2cfa790bea4d4dc92d","Prolific","1","","null","","24","1","","null","345","313","313","32","w","true","3.4499999999999997","","","","","",""
"","","","","","","","","","","","Stimulus Response","170","2.1.0","136923","67806a2cfa790bea4d4dc92d","Prolific","1","","294","","24","1","","w","","","","","","","","1","","","","",""
"","","","","","","","","","","","Feedback","171","2.1.0","137435","67806a2cfa790bea4d4dc92d","Prolific","1","","null","","24","1","","null","","","","","","","","","","","","",""
"","","","","","","","","","","","Summary Trial","173","2.1.0","137437","67806a2cfa790bea4d4dc92d","Prolific","1","","294","","24","1","","w","345","313","","","","true","3.4499999999999997","1","","Practice","32","",""
"","","","","","","","","","","","html-keyboard-response","175","2.1.0","138452","67806a2cfa790bea4d4dc92d","Prolific","1","","null","","25","1","<p style=""font-size: 70pt;"">+</p>","null","","","","","","","","","","","","",""
"","","","","","","","","","","","Stimulus Presentation","176","2.1.0","138759","67806a2cfa790bea4d4dc92d","Prolific","1","","null","","25","1","","null","342","313","313","29","w","true","3.3499999999999996","","","","","",""
"","","","","","","","","","","","Stimulus Response","177","2.1.0","138974","67806a2cfa790bea4d4dc92d","Prolific","1","","211","","25","1","","w","","","","","","","","1","","","","",""
"","","","","","","","","","","","Feedback","178","2.1.0","139478","67806a2cfa790bea4d4dc92d","Prolific","1","","null","","25","1","","null","","","","","","","","","","","","",""
"","","","","","","","","","","","Summary Trial","180","2.1.0","139480","67806a2cfa790bea4d4dc92d","Prolific","1","","211","","25","1","","w","342","313","","","","true","3.3499999999999996","1","","Practice","29","",""
"","","","","","","","","","","","html-keyboard-response","182","2.1.0","140488","67806a2cfa790bea4d4dc92d","Prolific","1","","null","","26","1","<p style=""font-size: 70pt;"">+</p>","null","","","","","","","","","","","","",""
"","","","","","","","","","","","Stimulus Presentation","183","2.1.0","140802","67806a2cfa790bea4d4dc92d","Prolific","1","","null","","26","1","","null","313","342","313","29","e","false","3.3499999999999996","","","","","",""
"","","","","","","","","","","","Stimulus Response","184","2.1.0","141079","67806a2cfa790bea4d4dc92d","Prolific","1","","274","","26","1","","e","","","","","","","","1","","","","",""
"","","","","","","","","","","","Feedback","185","2.1.0","141584","67806a2cfa790bea4d4dc92d","Prolific","1","","null","","26","1","","null","","","","","","","","","","","","",""
"","","","","","","","","","","","Summary Trial","187","2.1.0","141585","67806a2cfa790bea4d4dc92d","Prolific","1","","274","","26","1","","e","313","342","","","","false","3.3499999999999996","1","","Practice","29","",""
"","","","","","","","","","","","instructions","188","2.1.0","151553","67806a2cfa790bea4d4dc92d","Prolific","1","","9968","[{""page_index"":0,""viewing_time"":9968}]","","","","","","","","","","","","","","","","",""
"","","","","","","","","","","","Confidence Rating","189","2.1.0","169300","67806a2cfa790bea4d4dc92d","Prolific","1","","17745","","","","A rating scale as shown below is used throughout the task. 
        You will select any point with your mouse.<br>Choose any point on the 
          scale and click &apos;Submit&apos; to continue.<br><br>
            <div id=""conf1"" class=""conf"" style=""height:25px; width:154px; margin-top:2px; margin-left:15px;""></div>
            <div id=""conf2"" class=""conf"" style=""height:25px; width:154px; margin-top:2px; margin-left:169px;""></div>
            <div id=""conf3"" class=""conf"" style=""height:25px; width:154px; margin-top:2px; margin-left:323px;""></div>
            <div id=""conf4"" class=""conf"" style=""height:25px; width:154px; margin-top:2px; margin-left:477px;""></div>
     <div id=""conf5"" class=""conf"" style=""height:25px; width:154px; margin-top:2px; margin-left:631px;""></div>","4","","","","","","","","","","","","50",""
"","","","","","","","","","","","Confidence Rating","190","2.1.0","176422","67806a2cfa790bea4d4dc92d","Prolific","1","","7121","","","","During the task, if you are <strong>very sure</strong> that you made the correct judgement, you should respond <strong>&apos;Certain&apos;</strong><br><br>
            <div id=""conf1"" class=""conf"" style=""height:25px; width:154px; margin-top:2px; margin-left:15px;""></div>
            <div id=""conf2"" class=""conf"" style=""height:25px; width:154px; margin-top:2px; margin-left:169px;""></div>
            <div id=""conf3"" class=""conf"" style=""height:25px; width:154px; margin-top:2px; margin-left:323px;""></div>
            <div id=""conf4"" class=""conf"" style=""height:25px; width:154px; margin-top:2px; margin-left:477px;""></div>
   <div id=""conf5"" class=""conf"" style=""height:25px; width:154px; margin-top:2px; margin-left:631px;""></div>","6","","","","","","","","","","","","50",""
"","","","","","","","","","","","Confidence Rating","191","2.1.0","178687","67806a2cfa790bea4d4dc92d","Prolific","1","","2263","","","","If you are <strong>very unsure</strong> you made the correct judgement, you should respond <strong>&apos;Guessing&apos;</strong><br><br>
            <div id=""conf1"" class=""conf"" style=""height:25px; width:154px; margin-top:2px; margin-left:15px;""></div>
            <div id=""conf2"" class=""conf"" style=""height:25px; width:154px; margin-top:2px; margin-left:169px;""></div>
            <div id=""conf3"" class=""conf"" style=""height:25px; width:154px; margin-top:2px; margin-left:323px;""></div>
            <div id=""conf4"" class=""conf"" style=""height:25px; width:154px; margin-top:2px; margin-left:477px;""></div>
 <div id=""conf5"" class=""conf"" style=""height:25px; width:154px; margin-top:2px; margin-left:631px;""></div>","1","","","","","","","","","","","","1",""
"","","","","","","","","","","","Confidence Rating","192","2.1.0","180894","67806a2cfa790bea4d4dc92d","Prolific","1","","2206","","","","If you are <strong>somewhat sure</strong> about being correct, you should select a rating between the two descriptions.<br><br>
            <div id=""conf1"" class=""conf"" style=""height:25px; width:154px; margin-top:2px; margin-left:15px;""></div>
            <div id=""conf2"" class=""conf"" style=""height:25px; width:154px; margin-top:2px; margin-left:169px;""></div>
            <div id=""conf3"" class=""conf"" style=""height:25px; width:154px; margin-top:2px; margin-left:323px;""></div>
            <div id=""conf4"" class=""conf"" style=""height:25px; width:154px; margin-top:2px; margin-left:477px;""></div>
 <div id=""conf5"" class=""conf"" style=""height:25px; width:154px; margin-top:2px; margin-left:631px;""></div>","4","","","","","","","","","","","","4",""
"","","","","","","","","","","","Confidence Rating","193","2.1.0","189944","67806a2cfa790bea4d4dc92d","Prolific","1","","9049","","","","If you understand how to use and take advantage of the whole rating scale, choose any point on the rating scale and click &apos;Submit&apos; to continue.<br><br>
            <div id=""conf1"" class=""conf"" style=""height:25px; width:154px; margin-top:2px; margin-left:15px;""></div>
            <div id=""conf2"" class=""conf"" style=""height:25px; width:154px; margin-top:2px; margin-left:169px;""></div>
            <div id=""conf3"" class=""conf"" style=""height:25px; width:154px; margin-top:2px; margin-left:323px;""></div>
            <div id=""conf4"" class=""conf"" style=""height:25px; width:154px; margin-top:2px; margin-left:477px;""></div>
 <div id=""conf5"" class=""conf"" style=""height:25px; width:154px; margin-top:2px; margin-left:631px;""></div>","6","","","","","","","","","","","","50",""
"","","","","","","","","","","","instructions","194","2.1.0","201429","67806a2cfa790bea4d4dc92d","Prolific","1","","11484","[{""page_index"":0,""viewing_time"":11483}]","","","","","","","","","","","","","","","","",""
"","","","","","","","","","","","instructions","195","2.1.0","209855","67806a2cfa790bea4d4dc92d","Prolific","1","","8425","[{""page_index"":0,""viewing_time"":8425}]","","","","","","","","","","","","","","","","",""
"","","","","","","","","","","","html-keyboard-response","197","2.1.0","210865","67806a2cfa790bea4d4dc92d","Prolific","1","","null","","27","2","<p style=""font-size: 70pt;"">+</p>","null","","","","","","","","","","","","",""
"","","","","","","","","","","","Stimulus Presentation","198","2.1.0","211178","67806a2cfa790bea4d4dc92d","Prolific","1","","null","","27","2","","null","339","313","313","26","w","true","3.2499999999999996","","","","","",""
"","","","","","","","","","","","Stimulus Response","199","2.1.0","211709","67806a2cfa790bea4d4dc92d","Prolific","1","","528","","27","2","","w","","","","","","","","1","","","","",""
"","","","","","","","","","","","Feedback","200","2.1.0","212221","67806a2cfa790bea4d4dc92d","Prolific","1","","null","","27","2","","null","","","","","","","","","","","","",""
"","","","","","","","","","","","Confidence Rating","201","2.1.0","217119","67806a2cfa790bea4d4dc92d","Prolific","1","","4894","","27","2","<h3>Rate your confidence:</h3>
            <div id=""conf1"" class=""conf"" style=""height:25px; width:154px; margin-top:2px; margin-left:15px;""></div>
            <div id=""conf2"" class=""conf"" style=""height:25px; width:154px; margin-top:2px; margin-left:169px;""></div>
            <div id=""conf3"" class=""conf"" style=""height:25px; width:154px; margin-top:2px; margin-left:323px;""></div>
            <div id=""conf4"" class=""conf"" style=""height:25px; width:154px; margin-top:2px; margin-left:477px;""></div>
          <div id=""conf5"" class=""conf"" style=""height:25px; width:154px; margin-top:2px; margin-left:631px;""></div>","4","","","","","","","","","","","","50",""
"","","","","","","","","","","","Summary Trial","202","2.1.0","217119","67806a2cfa790bea4d4dc92d","Prolific","1","","528","","27","2","","w","339","313","","","","true","3.2499999999999996","1","","Test","26","","4"
"","","","","","","","","","","","html-keyboard-response","204","2.1.0","218127","67806a2cfa790bea4d4dc92d","Prolific","1","","null","","28","2","<p style=""font-size: 70pt;"">+</p>","null","","","","","","","","","","","","",""
"","","","","","","","","","","","Stimulus Presentation","205","2.1.0","218430","67806a2cfa790bea4d4dc92d","Prolific","1","","null","","28","2","","null","313","339","313","26","e","false","3.2499999999999996","","","","","",""
"","","","","","","","","","","","Stimulus Response","206","2.1.0","218930","67806a2cfa790bea4d4dc92d","Prolific","1","","499","","28","2","","e","","","","","","","","1","","","","",""
"","","","","","","","","","","","Feedback","207","2.1.0","219434","67806a2cfa790bea4d4dc92d","Prolific","1","","null","","28","2","","null","","","","","","","","","","","","",""
"","","","","","","","","","","","Confidence Rating","208","2.1.0","222498","67806a2cfa790bea4d4dc92d","Prolific","1","","3062","","28","2","<h3>Rate your confidence:</h3>
            <div id=""conf1"" class=""conf"" style=""height:25px; width:154px; margin-top:2px; margin-left:15px;""></div>
            <div id=""conf2"" class=""conf"" style=""height:25px; width:154px; margin-top:2px; margin-left:169px;""></div>
            <div id=""conf3"" class=""conf"" style=""height:25px; width:154px; margin-top:2px; margin-left:323px;""></div>
            <div id=""conf4"" class=""conf"" style=""height:25px; width:154px; margin-top:2px; margin-left:477px;""></div>
          <div id=""conf5"" class=""conf"" style=""height:25px; width:154px; margin-top:2px; margin-left:631px;""></div>","5","","","","","","","","","","","","50",""
"","","","","","","","","","","","Summary Trial","209","2.1.0","222498","67806a2cfa790bea4d4dc92d","Prolific","1","","499","","28","2","","e","313","339","","","","false","3.2499999999999996","1","","Test","26","","5"
"","","","","","","","","","","","html-keyboard-response","211","2.1.0","223501","67806a2cfa790bea4d4dc92d","Prolific","1","","null","","29","2","<p style=""font-size: 70pt;"">+</p>","null","","","","","","","","","","","","",""
"","","","","","","","","","","","Stimulus Presentation","212","2.1.0","223816","67806a2cfa790bea4d4dc92d","Prolific","1","","null","","29","2","","null","336","313","313","23","w","true","3.1499999999999995","","","","","",""
"","","","","","","","","","","","Stimulus Response","213","2.1.0","224303","67806a2cfa790bea4d4dc92d","Prolific","1","","484","","29","2","","w","","","","","","","","1","","","","",""
"","","","","","","","","","","","Feedback","214","2.1.0","224811","67806a2cfa790bea4d4dc92d","Prolific","1","","null","","29","2","","null","","","","","","","","","","","","",""
"","","","","","","","","","","","Confidence Rating","215","2.1.0","228578","67806a2cfa790bea4d4dc92d","Prolific","1","","3766","","29","2","<h3>Rate your confidence:</h3>
            <div id=""conf1"" class=""conf"" style=""height:25px; width:154px; margin-top:2px; margin-left:15px;""></div>
            <div id=""conf2"" class=""conf"" style=""height:25px; width:154px; margin-top:2px; margin-left:169px;""></div>
            <div id=""conf3"" class=""conf"" style=""height:25px; width:154px; margin-top:2px; margin-left:323px;""></div>
            <div id=""conf4"" class=""conf"" style=""height:25px; width:154px; margin-top:2px; margin-left:477px;""></div>
          <div id=""conf5"" class=""conf"" style=""height:25px; width:154px; margin-top:2px; margin-left:631px;""></div>","6","","","","","","","","","","","","50",""
"","","","","","","","","","","","Summary Trial","216","2.1.0","228578","67806a2cfa790bea4d4dc92d","Prolific","1","","484","","29","2","","w","336","313","","","","true","3.1499999999999995","1","","Test","23","","6"
"","","","","","","","","","","","html-keyboard-response","218","2.1.0","229596","67806a2cfa790bea4d4dc92d","Prolific","1","","null","","30","2","<p style=""font-size: 70pt;"">+</p>","null","","","","","","","","","","","","",""
"","","","","","","","","","","","Stimulus Presentation","219","2.1.0","229914","67806a2cfa790bea4d4dc92d","Prolific","1","","null","","30","2","","null","313","336","313","23","e","false","3.1499999999999995","","","","","",""
"","","","","","","","","","","","Stimulus Response","220","2.1.0","230896","67806a2cfa790bea4d4dc92d","Prolific","1","","980","","30","2","","e","","","","","","","","1","","","","",""
"","","","","","","","","","","","Feedback","221","2.1.0","231398","67806a2cfa790bea4d4dc92d","Prolific","1","","null","","30","2","","null","","","","","","","","","","","","",""
"","","","","","","","","","","","Confidence Rating","222","2.1.0","234847","67806a2cfa790bea4d4dc92d","Prolific","1","","3448","","30","2","<h3>Rate your confidence:</h3>
            <div id=""conf1"" class=""conf"" style=""height:25px; width:154px; margin-top:2px; margin-left:15px;""></div>
            <div id=""conf2"" class=""conf"" style=""height:25px; width:154px; margin-top:2px; margin-left:169px;""></div>
            <div id=""conf3"" class=""conf"" style=""height:25px; width:154px; margin-top:2px; margin-left:323px;""></div>
            <div id=""conf4"" class=""conf"" style=""height:25px; width:154px; margin-top:2px; margin-left:477px;""></div>
          <div id=""conf5"" class=""conf"" style=""height:25px; width:154px; margin-top:2px; margin-left:631px;""></div>","5","","","","","","","","","","","","50",""
"","","","","","","","","","","","Summary Trial","223","2.1.0","234848","67806a2cfa790bea4d4dc92d","Prolific","1","","980","","30","2","","e","313","336","","","","false","3.1499999999999995","1","","Test","23","","5"
"","","","","","","","","","","","html-keyboard-response","225","2.1.0","235851","67806a2cfa790bea4d4dc92d","Prolific","1","","null","","31","2","<p style=""font-size: 70pt;"">+</p>","null","","","","","","","","","","","","",""
"","","","","","","","","","","","Stimulus Presentation","226","2.1.0","236163","67806a2cfa790bea4d4dc92d","Prolific","1","","null","","31","2","","null","313","334","313","21","e","false","3.0499999999999994","","","","","",""
"","","","","","","","","","","","Stimulus Response","227","2.1.0","236875","67806a2cfa790bea4d4dc92d","Prolific","1","","711","","31","2","","w","","","","","","","","0","","","","",""
"","","","","","","","","","","","Feedback","228","2.1.0","237383","67806a2cfa790bea4d4dc92d","Prolific","1","","null","","31","2","","null","","","","","","","","","","","","",""
"","","","","","","","","","","","Confidence Rating","229","2.1.0","240489","67806a2cfa790bea4d4dc92d","Prolific","1","","3105","","31","2","<h3>Rate your confidence:</h3>
            <div id=""conf1"" class=""conf"" style=""height:25px; width:154px; margin-top:2px; margin-left:15px;""></div>
            <div id=""conf2"" class=""conf"" style=""height:25px; width:154px; margin-top:2px; margin-left:169px;""></div>
            <div id=""conf3"" class=""conf"" style=""height:25px; width:154px; margin-top:2px; margin-left:323px;""></div>
            <div id=""conf4"" class=""conf"" style=""height:25px; width:154px; margin-top:2px; margin-left:477px;""></div>
          <div id=""conf5"" class=""conf"" style=""height:25px; width:154px; margin-top:2px; margin-left:631px;""></div>","5","","","","","","","","","","","","50",""
"","","","","","","","","","","","Summary Trial","230","2.1.0","240490","67806a2cfa790bea4d4dc92d","Prolific","1","","711","","31","2","","w","313","334","","","","false","3.0499999999999994","0","","Test","21","","5"
"","","","","","","","","","","","html-keyboard-response","232","2.1.0","241501","67806a2cfa790bea4d4dc92d","Prolific","1","","null","","32","2","<p style=""font-size: 70pt;"">+</p>","null","","","","","","","","","","","","",""
"","","","","","","","","","","","Stimulus Presentation","233","2.1.0","241818","67806a2cfa790bea4d4dc92d","Prolific","1","","null","","32","2","","null","336","313","313","23","w","true","3.1499999999999995","","","","","",""
"","","","","","","","","","","","Stimulus Response","234","2.1.0","242671","67806a2cfa790bea4d4dc92d","Prolific","1","","850","","32","2","","w","","","","","","","","1","","","","",""
"","","","","","","","","","","","Feedback","235","2.1.0","243178","67806a2cfa790bea4d4dc92d","Prolific","1","","null","","32","2","","null","","","","","","","","","","","","",""
"","","","","","","","","","","","Confidence Rating","236","2.1.0","245945","67806a2cfa790bea4d4dc92d","Prolific","1","","2763","","32","2","<h3>Rate your confidence:</h3>
            <div id=""conf1"" class=""conf"" style=""height:25px; width:154px; margin-top:2px; margin-left:15px;""></div>
            <div id=""conf2"" class=""conf"" style=""height:25px; width:154px; margin-top:2px; margin-left:169px;""></div>
            <div id=""conf3"" class=""conf"" style=""height:25px; width:154px; margin-top:2px; margin-left:323px;""></div>
            <div id=""conf4"" class=""conf"" style=""height:25px; width:154px; margin-top:2px; margin-left:477px;""></div>
          <div id=""conf5"" class=""conf"" style=""height:25px; width:154px; margin-top:2px; margin-left:631px;""></div>","5","","","","","","","","","","","","50",""
"","","","","","","","","","","","Summary Trial","237","2.1.0","245946","67806a2cfa790bea4d4dc92d","Prolific","1","","850","","32","2","","w","336","313","","","","true","3.1499999999999995","1","","Test","23","","5"
"","","","","","","","","","","","html-keyboard-response","239","2.1.0","246955","67806a2cfa790bea4d4dc92d","Prolific","1","","null","","33","2","<p style=""font-size: 70pt;"">+</p>","null","","","","","","","","","","","","",""
"","","","","","","","","","","","Stimulus Presentation","240","2.1.0","247264","67806a2cfa790bea4d4dc92d","Prolific","1","","null","","33","2","","null","336","313","313","23","w","true","3.1499999999999995","","","","","",""
"","","","","","","","","","","","Stimulus Response","241","2.1.0","248092","67806a2cfa790bea4d4dc92d","Prolific","1","","824","","33","2","","e","","","","","","","","0","","","","",""
"","","","","","","","","","","","Feedback","242","2.1.0","248605","67806a2cfa790bea4d4dc92d","Prolific","1","","null","","33","2","","null","","","","","","","","","","","","",""
"","","","","","","","","","","","Confidence Rating","243","2.1.0","251241","67806a2cfa790bea4d4dc92d","Prolific","1","","2632","","33","2","<h3>Rate your confidence:</h3>
            <div id=""conf1"" class=""conf"" style=""height:25px; width:154px; margin-top:2px; margin-left:15px;""></div>
            <div id=""conf2"" class=""conf"" style=""height:25px; width:154px; margin-top:2px; margin-left:169px;""></div>
            <div id=""conf3"" class=""conf"" style=""height:25px; width:154px; margin-top:2px; margin-left:323px;""></div>
            <div id=""conf4"" class=""conf"" style=""height:25px; width:154px; margin-top:2px; margin-left:477px;""></div>
          <div id=""conf5"" class=""conf"" style=""height:25px; width:154px; margin-top:2px; margin-left:631px;""></div>","4","","","","","","","","","","","","50",""
"","","","","","","","","","","","Summary Trial","244","2.1.0","251241","67806a2cfa790bea4d4dc92d","Prolific","1","","824","","33","2","","e","336","313","","","","true","3.1499999999999995","0","","Test","23","","4"
"","","","","","","","","","","","html-keyboard-response","246","2.1.0","252257","67806a2cfa790bea4d4dc92d","Prolific","1","","null","","34","2","<p style=""font-size: 70pt;"">+</p>","null","","","","","","","","","","","","",""
"","","","","","","","","","","","Stimulus Presentation","247","2.1.0","252568","67806a2cfa790bea4d4dc92d","Prolific","1","","null","","34","2","","null","313","339","313","26","e","false","3.2499999999999996","","","","","",""
"","","","","","","","","","","","Stimulus Response","248","2.1.0","254146","67806a2cfa790bea4d4dc92d","Prolific","1","","1577","","34","2","","e","","","","","","","","1","","","","",""
"","","","","","","","","","","","Feedback","249","2.1.0","254665","67806a2cfa790bea4d4dc92d","Prolific","1","","null","","34","2","","null","","","","","","","","","","","","",""
"","","","","","","","","","","","Confidence Rating","250","2.1.0","257968","67806a2cfa790bea4d4dc92d","Prolific","1","","3299","","34","2","<h3>Rate your confidence:</h3>
            <div id=""conf1"" class=""conf"" style=""height:25px; width:154px; margin-top:2px; margin-left:15px;""></div>
            <div id=""conf2"" class=""conf"" style=""height:25px; width:154px; margin-top:2px; margin-left:169px;""></div>
            <div id=""conf3"" class=""conf"" style=""height:25px; width:154px; margin-top:2px; margin-left:323px;""></div>
            <div id=""conf4"" class=""conf"" style=""height:25px; width:154px; margin-top:2px; margin-left:477px;""></div>
          <div id=""conf5"" class=""conf"" style=""height:25px; width:154px; margin-top:2px; margin-left:631px;""></div>","3","","","","","","","","","","","","50",""
"","","","","","","","","","","","Summary Trial","251","2.1.0","257968","67806a2cfa790bea4d4dc92d","Prolific","1","","1577","","34","2","","e","313","339","","","","false","3.2499999999999996","1","","Test","26","","3"
"","","","","","","","","","","","html-keyboard-response","253","2.1.0","258982","67806a2cfa790bea4d4dc92d","Prolific","1","","null","","35","2","<p style=""font-size: 70pt;"">+</p>","null","","","","","","","","","","","","",""
"","","","","","","","","","","","Stimulus Presentation","254","2.1.0","259292","67806a2cfa790bea4d4dc92d","Prolific","1","","null","","35","2","","null","339","313","313","26","w","true","3.2499999999999996","","","","","",""
"","","","","","","","","","","","Stimulus Response","255","2.1.0","259982","67806a2cfa790bea4d4dc92d","Prolific","1","","687","","35","2","","w","","","","","","","","1","","","","",""
"","","","","","","","","","","","Feedback","256","2.1.0","260497","67806a2cfa790bea4d4dc92d","Prolific","1","","null","","35","2","","null","","","","","","","","","","","","",""
"","","","","","","","","","","","Confidence Rating","257","2.1.0","266579","67806a2cfa790bea4d4dc92d","Prolific","1","","6079","","35","2","<h3>Rate your confidence:</h3>
            <div id=""conf1"" class=""conf"" style=""height:25px; width:154px; margin-top:2px; margin-left:15px;""></div>
            <div id=""conf2"" class=""conf"" style=""height:25px; width:154px; margin-top:2px; margin-left:169px;""></div>
            <div id=""conf3"" class=""conf"" style=""height:25px; width:154px; margin-top:2px; margin-left:323px;""></div>
            <div id=""conf4"" class=""conf"" style=""height:25px; width:154px; margin-top:2px; margin-left:477px;""></div>
          <div id=""conf5"" class=""conf"" style=""height:25px; width:154px; margin-top:2px; margin-left:631px;""></div>","4","","","","","","","","","","","","50",""
"","","","","","","","","","","","Summary Trial","258","2.1.0","266579","67806a2cfa790bea4d4dc92d","Prolific","1","","687","","35","2","","w","339","313","","","","true","3.2499999999999996","1","","Test","26","","4"
"","","","","","","","","","","","html-keyboard-response","260","2.1.0","267595","67806a2cfa790bea4d4dc92d","Prolific","1","","null","","36","2","<p style=""font-size: 70pt;"">+</p>","null","","","","","","","","","","","","",""
"","","","","","","","","","","","Stimulus Presentation","261","2.1.0","267901","67806a2cfa790bea4d4dc92d","Prolific","1","","null","","36","2","","null","313","336","313","23","e","false","3.1499999999999995","","","","","",""
"","","","","","","","","","","","Stimulus Response","262","2.1.0","268561","67806a2cfa790bea4d4dc92d","Prolific","1","","657","","36","2","","e","","","","","","","","1","","","","",""
"","","","","","","","","","","","Feedback","263","2.1.0","269078","67806a2cfa790bea4d4dc92d","Prolific","1","","null","","36","2","","null","","","","","","","","","","","","",""
"","","","","","","","","","","","Confidence Rating","264","2.1.0","271922","67806a2cfa790bea4d4dc92d","Prolific","1","","2841","","36","2","<h3>Rate your confidence:</h3>
            <div id=""conf1"" class=""conf"" style=""height:25px; width:154px; margin-top:2px; margin-left:15px;""></div>
            <div id=""conf2"" class=""conf"" style=""height:25px; width:154px; margin-top:2px; margin-left:169px;""></div>
            <div id=""conf3"" class=""conf"" style=""height:25px; width:154px; margin-top:2px; margin-left:323px;""></div>
            <div id=""conf4"" class=""conf"" style=""height:25px; width:154px; margin-top:2px; margin-left:477px;""></div>
          <div id=""conf5"" class=""conf"" style=""height:25px; width:154px; margin-top:2px; margin-left:631px;""></div>","3","","","","","","","","","","","","50",""
"","","","","","","","","","","","Summary Trial","265","2.1.0","271923","67806a2cfa790bea4d4dc92d","Prolific","1","","657","","36","2","","e","313","336","","","","false","3.1499999999999995","1","","Test","23","","3"
"","","","","","","","","","","","html-keyboard-response","267","2.1.0","272930","67806a2cfa790bea4d4dc92d","Prolific","1","","null","","37","2","<p style=""font-size: 70pt;"">+</p>","null","","","","","","","","","","","","",""
"","","","","","","","","","","","Stimulus Presentation","268","2.1.0","273254","67806a2cfa790bea4d4dc92d","Prolific","1","","null","","37","2","","null","336","313","313","23","w","true","3.1499999999999995","","","","","",""
"","","","","","","","","","","","Stimulus Response","269","2.1.0","273848","67806a2cfa790bea4d4dc92d","Prolific","1","","590","","37","2","","w","","","","","","","","1","","","","",""
"","","","","","","","","","","","Feedback","270","2.1.0","274367","67806a2cfa790bea4d4dc92d","Prolific","1","","null","","37","2","","null","","","","","","","","","","","","",""
"","","","","","","","","","","","Confidence Rating","271","2.1.0","276699","67806a2cfa790bea4d4dc92d","Prolific","1","","2330","","37","2","<h3>Rate your confidence:</h3>
            <div id=""conf1"" class=""conf"" style=""height:25px; width:154px; margin-top:2px; margin-left:15px;""></div>
            <div id=""conf2"" class=""conf"" style=""height:25px; width:154px; margin-top:2px; margin-left:169px;""></div>
            <div id=""conf3"" class=""conf"" style=""height:25px; width:154px; margin-top:2px; margin-left:323px;""></div>
            <div id=""conf4"" class=""conf"" style=""height:25px; width:154px; margin-top:2px; margin-left:477px;""></div>
          <div id=""conf5"" class=""conf"" style=""height:25px; width:154px; margin-top:2px; margin-left:631px;""></div>","3","","","","","","","","","","","","50",""
"","","","","","","","","","","","Summary Trial","272","2.1.0","276700","67806a2cfa790bea4d4dc92d","Prolific","1","","590","","37","2","","w","336","313","","","","true","3.1499999999999995","1","","Test","23","","3"
"","","","","","","","","","","","html-keyboard-response","274","2.1.0","277715","67806a2cfa790bea4d4dc92d","Prolific","1","","null","","38","2","<p style=""font-size: 70pt;"">+</p>","null","","","","","","","","","","","","",""
"","","","","","","","","","","","Stimulus Presentation","275","2.1.0","278029","67806a2cfa790bea4d4dc92d","Prolific","1","","null","","38","2","","null","313","334","313","21","e","false","3.0499999999999994","","","","","",""
"","","","","","","","","","","","Stimulus Response","276","2.1.0","278627","67806a2cfa790bea4d4dc92d","Prolific","1","","596","","38","2","","e","","","","","","","","1","","","","",""
"","","","","","","","","","","","Feedback","277","2.1.0","279132","67806a2cfa790bea4d4dc92d","Prolific","1","","null","","38","2","","null","","","","","","","","","","","","",""
"","","","","","","","","","","","Confidence Rating","278","2.1.0","281671","67806a2cfa790bea4d4dc92d","Prolific","1","","2538","","38","2","<h3>Rate your confidence:</h3>
            <div id=""conf1"" class=""conf"" style=""height:25px; width:154px; margin-top:2px; margin-left:15px;""></div>
            <div id=""conf2"" class=""conf"" style=""height:25px; width:154px; margin-top:2px; margin-left:169px;""></div>
            <div id=""conf3"" class=""conf"" style=""height:25px; width:154px; margin-top:2px; margin-left:323px;""></div>
            <div id=""conf4"" class=""conf"" style=""height:25px; width:154px; margin-top:2px; margin-left:477px;""></div>
          <div id=""conf5"" class=""conf"" style=""height:25px; width:154px; margin-top:2px; margin-left:631px;""></div>","5","","","","","","","","","","","","50",""
"","","","","","","","","","","","Summary Trial","279","2.1.0","281671","67806a2cfa790bea4d4dc92d","Prolific","1","","596","","38","2","","e","313","334","","","","false","3.0499999999999994","1","","Test","21","","5"
"","","","","","","","","","","","html-keyboard-response","281","2.1.0","282677","67806a2cfa790bea4d4dc92d","Prolific","1","","null","","39","2","<p style=""font-size: 70pt;"">+</p>","null","","","","","","","","","","","","",""
"","","","","","","","","","","","Stimulus Presentation","282","2.1.0","282986","67806a2cfa790bea4d4dc92d","Prolific","1","","null","","39","2","","null","334","313","313","21","w","true","3.0499999999999994","","","","","",""
"","","","","","","","","","","","Stimulus Response","283","2.1.0","284429","67806a2cfa790bea4d4dc92d","Prolific","1","","1439","","39","2","","w","","","","","","","","1","","","","",""
"","","","","","","","","","","","Feedback","284","2.1.0","284935","67806a2cfa790bea4d4dc92d","Prolific","1","","null","","39","2","","null","","","","","","","","","","","","",""
"","","","","","","","","","","","Confidence Rating","285","2.1.0","289295","67806a2cfa790bea4d4dc92d","Prolific","1","","4357","","39","2","<h3>Rate your confidence:</h3>
            <div id=""conf1"" class=""conf"" style=""height:25px; width:154px; margin-top:2px; margin-left:15px;""></div>
            <div id=""conf2"" class=""conf"" style=""height:25px; width:154px; margin-top:2px; margin-left:169px;""></div>
            <div id=""conf3"" class=""conf"" style=""height:25px; width:154px; margin-top:2px; margin-left:323px;""></div>
            <div id=""conf4"" class=""conf"" style=""height:25px; width:154px; margin-top:2px; margin-left:477px;""></div>
          <div id=""conf5"" class=""conf"" style=""height:25px; width:154px; margin-top:2px; margin-left:631px;""></div>","2","","","","","","","","","","","","50",""
"","","","","","","","","","","","Summary Trial","286","2.1.0","289295","67806a2cfa790bea4d4dc92d","Prolific","1","","1439","","39","2","","w","334","313","","","","true","3.0499999999999994","1","","Test","21","","2"
"","","","","","","","","","","","html-keyboard-response","288","2.1.0","290300","67806a2cfa790bea4d4dc92d","Prolific","1","","null","","40","2","<p style=""font-size: 70pt;"">+</p>","null","","","","","","","","","","","","",""
"","","","","","","","","","","","Stimulus Presentation","289","2.1.0","290615","67806a2cfa790bea4d4dc92d","Prolific","1","","null","","40","2","","null","313","332","313","19","e","false","2.9499999999999993","","","","","",""
"","","","","","","","","","","","Stimulus Response","290","2.1.0","291265","67806a2cfa790bea4d4dc92d","Prolific","1","","647","","40","2","","e","","","","","","","","1","","","","",""
"","","","","","","","","","","","Feedback","291","2.1.0","291772","67806a2cfa790bea4d4dc92d","Prolific","1","","null","","40","2","","null","","","","","","","","","","","","",""
"","","","","","","","","","","","Confidence Rating","292","2.1.0","294985","67806a2cfa790bea4d4dc92d","Prolific","1","","3212","","40","2","<h3>Rate your confidence:</h3>
            <div id=""conf1"" class=""conf"" style=""height:25px; width:154px; margin-top:2px; margin-left:15px;""></div>
            <div id=""conf2"" class=""conf"" style=""height:25px; width:154px; margin-top:2px; margin-left:169px;""></div>
            <div id=""conf3"" class=""conf"" style=""height:25px; width:154px; margin-top:2px; margin-left:323px;""></div>
            <div id=""conf4"" class=""conf"" style=""height:25px; width:154px; margin-top:2px; margin-left:477px;""></div>
          <div id=""conf5"" class=""conf"" style=""height:25px; width:154px; margin-top:2px; margin-left:631px;""></div>","4","","","","","","","","","","","","50",""
"","","","","","","","","","","","Summary Trial","293","2.1.0","294986","67806a2cfa790bea4d4dc92d","Prolific","1","","647","","40","2","","e","313","332","","","","false","2.9499999999999993","1","","Test","19","","4"
"","","","","","","","","","","","html-keyboard-response","295","2.1.0","295990","67806a2cfa790bea4d4dc92d","Prolific","1","","null","","41","2","<p style=""font-size: 70pt;"">+</p>","null","","","","","","","","","","","","",""
"","","","","","","","","","","","Stimulus Presentation","296","2.1.0","296307","67806a2cfa790bea4d4dc92d","Prolific","1","","null","","41","2","","null","332","313","313","19","w","true","2.9499999999999993","","","","","",""
"","","","","","","","","","","","Stimulus Response","297","2.1.0","296746","67806a2cfa790bea4d4dc92d","Prolific","1","","437","","41","2","","e","","","","","","","","0","","","","",""
"","","","","","","","","","","","Feedback","298","2.1.0","297254","67806a2cfa790bea4d4dc92d","Prolific","1","","null","","41","2","","null","","","","","","","","","","","","",""
"","","","","","","","","","","","Confidence Rating","299","2.1.0","300972","67806a2cfa790bea4d4dc92d","Prolific","1","","3715","","41","2","<h3>Rate your confidence:</h3>
            <div id=""conf1"" class=""conf"" style=""height:25px; width:154px; margin-top:2px; margin-left:15px;""></div>
            <div id=""conf2"" class=""conf"" style=""height:25px; width:154px; margin-top:2px; margin-left:169px;""></div>
            <div id=""conf3"" class=""conf"" style=""height:25px; width:154px; margin-top:2px; margin-left:323px;""></div>
            <div id=""conf4"" class=""conf"" style=""height:25px; width:154px; margin-top:2px; margin-left:477px;""></div>
          <div id=""conf5"" class=""conf"" style=""height:25px; width:154px; margin-top:2px; margin-left:631px;""></div>","6","","","","","","","","","","","","50",""
"","","","","","","","","","","","Summary Trial","300","2.1.0","300973","67806a2cfa790bea4d4dc92d","Prolific","1","","437","","41","2","","e","332","313","","","","true","2.9499999999999993","0","","Test","19","","6"
"","","","","","","","","","","","html-keyboard-response","302","2.1.0","301985","67806a2cfa790bea4d4dc92d","Prolific","1","","null","","42","2","<p style=""font-size: 70pt;"">+</p>","null","","","","","","","","","","","","",""
"","","","","","","","","","","","Stimulus Presentation","303","2.1.0","302301","67806a2cfa790bea4d4dc92d","Prolific","1","","null","","42","2","","null","313","334","313","21","e","false","3.0499999999999994","","","","","",""
"","","","","","","","","","","","Stimulus Response","304","2.1.0","302950","67806a2cfa790bea4d4dc92d","Prolific","1","","648","","42","2","","e","","","","","","","","1","","","","",""
"","","","","","","","","","","","Feedback","305","2.1.0","303458","67806a2cfa790bea4d4dc92d","Prolific","1","","null","","42","2","","null","","","","","","","","","","","","",""
"","","","","","","","","","","","Confidence Rating","306","2.1.0","305888","67806a2cfa790bea4d4dc92d","Prolific","1","","2426","","42","2","<h3>Rate your confidence:</h3>
            <div id=""conf1"" class=""conf"" style=""height:25px; width:154px; margin-top:2px; margin-left:15px;""></div>
            <div id=""conf2"" class=""conf"" style=""height:25px; width:154px; margin-top:2px; margin-left:169px;""></div>
            <div id=""conf3"" class=""conf"" style=""height:25px; width:154px; margin-top:2px; margin-left:323px;""></div>
            <div id=""conf4"" class=""conf"" style=""height:25px; width:154px; margin-top:2px; margin-left:477px;""></div>
          <div id=""conf5"" class=""conf"" style=""height:25px; width:154px; margin-top:2px; margin-left:631px;""></div>","6","","","","","","","","","","","","50",""
"","","","","","","","","","","","Summary Trial","307","2.1.0","305888","67806a2cfa790bea4d4dc92d","Prolific","1","","648","","42","2","","e","313","334","","","","false","3.0499999999999994","1","","Test","21","","6"
"","","","","","","","","","","","html-keyboard-response","309","2.1.0","306892","67806a2cfa790bea4d4dc92d","Prolific","1","","null","","43","2","<p style=""font-size: 70pt;"">+</p>","null","","","","","","","","","","","","",""
"","","","","","","","","","","","Stimulus Presentation","310","2.1.0","307201","67806a2cfa790bea4d4dc92d","Prolific","1","","null","","43","2","","null","334","313","313","21","w","true","3.0499999999999994","","","","","",""
"","","","","","","","","","","","Stimulus Response","311","2.1.0","308083","67806a2cfa790bea4d4dc92d","Prolific","1","","879","","43","2","","e","","","","","","","","0","","","","",""
"","","","","","","","","","","","Feedback","312","2.1.0","308588","67806a2cfa790bea4d4dc92d","Prolific","1","","null","","43","2","","null","","","","","","","","","","","","",""
"","","","","","","","","","","","Confidence Rating","313","2.1.0","311489","67806a2cfa790bea4d4dc92d","Prolific","1","","2898","","43","2","<h3>Rate your confidence:</h3>
            <div id=""conf1"" class=""conf"" style=""height:25px; width:154px; margin-top:2px; margin-left:15px;""></div>
            <div id=""conf2"" class=""conf"" style=""height:25px; width:154px; margin-top:2px; margin-left:169px;""></div>
            <div id=""conf3"" class=""conf"" style=""height:25px; width:154px; margin-top:2px; margin-left:323px;""></div>
            <div id=""conf4"" class=""conf"" style=""height:25px; width:154px; margin-top:2px; margin-left:477px;""></div>
          <div id=""conf5"" class=""conf"" style=""height:25px; width:154px; margin-top:2px; margin-left:631px;""></div>","5","","","","","","","","","","","","50",""
"","","","","","","","","","","","Summary Trial","314","2.1.0","311490","67806a2cfa790bea4d4dc92d","Prolific","1","","879","","43","2","","e","334","313","","","","true","3.0499999999999994","0","","Test","21","","5"
"","","","","","","","","","","","html-keyboard-response","316","2.1.0","312493","67806a2cfa790bea4d4dc92d","Prolific","1","","null","","44","2","<p style=""font-size: 70pt;"">+</p>","null","","","","","","","","","","","","",""
"","","","","","","","","","","","Stimulus Presentation","317","2.1.0","312797","67806a2cfa790bea4d4dc92d","Prolific","1","","null","","44","2","","null","313","336","313","23","e","false","3.1499999999999995","","","","","",""
"","","","","","","","","","","","Stimulus Response","318","2.1.0","314493","67806a2cfa790bea4d4dc92d","Prolific","1","","1694","","44","2","","e","","","","","","","","1","","","","",""
"","","","","","","","","","","","Feedback","319","2.1.0","315009","67806a2cfa790bea4d4dc92d","Prolific","1","","null","","44","2","","null","","","","","","","","","","","","",""
"","","","","","","","","","","","Confidence Rating","320","2.1.0","318058","67806a2cfa790bea4d4dc92d","Prolific","1","","3046","","44","2","<h3>Rate your confidence:</h3>
            <div id=""conf1"" class=""conf"" style=""height:25px; width:154px; margin-top:2px; margin-left:15px;""></div>
            <div id=""conf2"" class=""conf"" style=""height:25px; width:154px; margin-top:2px; margin-left:169px;""></div>
            <div id=""conf3"" class=""conf"" style=""height:25px; width:154px; margin-top:2px; margin-left:323px;""></div>
            <div id=""conf4"" class=""conf"" style=""height:25px; width:154px; margin-top:2px; margin-left:477px;""></div>
          <div id=""conf5"" class=""conf"" style=""height:25px; width:154px; margin-top:2px; margin-left:631px;""></div>","4","","","","","","","","","","","","50",""
"","","","","","","","","","","","Summary Trial","321","2.1.0","318059","67806a2cfa790bea4d4dc92d","Prolific","1","","1694","","44","2","","e","313","336","","","","false","3.1499999999999995","1","","Test","23","","4"
"","","","","","","","","","","","html-keyboard-response","323","2.1.0","319071","67806a2cfa790bea4d4dc92d","Prolific","1","","null","","45","2","<p style=""font-size: 70pt;"">+</p>","null","","","","","","","","","","","","",""
"","","","","","","","","","","","Stimulus Presentation","324","2.1.0","319387","67806a2cfa790bea4d4dc92d","Prolific","1","","null","","45","2","","null","313","336","313","23","e","false","3.1499999999999995","","","","","",""
"","","","","","","","","","","","Stimulus Response","325","2.1.0","319804","67806a2cfa790bea4d4dc92d","Prolific","1","","415","","45","2","","w","","","","","","","","0","","","","",""
"","","","","","","","","","","","Feedback","326","2.1.0","320320","67806a2cfa790bea4d4dc92d","Prolific","1","","null","","45","2","","null","","","","","","","","","","","","",""
"","","","","","","","","","","","Confidence Rating","327","2.1.0","322786","67806a2cfa790bea4d4dc92d","Prolific","1","","2464","","45","2","<h3>Rate your confidence:</h3>
            <div id=""conf1"" class=""conf"" style=""height:25px; width:154px; margin-top:2px; margin-left:15px;""></div>
            <div id=""conf2"" class=""conf"" style=""height:25px; width:154px; margin-top:2px; margin-left:169px;""></div>
            <div id=""conf3"" class=""conf"" style=""height:25px; width:154px; margin-top:2px; margin-left:323px;""></div>
            <div id=""conf4"" class=""conf"" style=""height:25px; width:154px; margin-top:2px; margin-left:477px;""></div>
          <div id=""conf5"" class=""conf"" style=""height:25px; width:154px; margin-top:2px; margin-left:631px;""></div>","6","","","","","","","","","","","","50",""
"","","","","","","","","","","","Summary Trial","328","2.1.0","322786","67806a2cfa790bea4d4dc92d","Prolific","1","","415","","45","2","","w","313","336","","","","false","3.1499999999999995","0","","Test","23","","6"
"","","","","","","","","","","","html-keyboard-response","330","2.1.0","323797","67806a2cfa790bea4d4dc92d","Prolific","1","","null","","46","2","<p style=""font-size: 70pt;"">+</p>","null","","","","","","","","","","","","",""
"","","","","","","","","","","","Stimulus Presentation","331","2.1.0","324114","67806a2cfa790bea4d4dc92d","Prolific","1","","null","","46","2","","null","339","313","313","26","w","true","3.2499999999999996","","","","","",""
"","","","","","","","","","","","Stimulus Response","332","2.1.0","324711","67806a2cfa790bea4d4dc92d","Prolific","1","","594","","46","2","","e","","","","","","","","0","","","","",""
"","","","","","","","","","","","Feedback","333","2.1.0","325215","67806a2cfa790bea4d4dc92d","Prolific","1","","null","","46","2","","null","","","","","","","","","","","","",""
"","","","","","","","","","","","Confidence Rating","334","2.1.0","359518","67806a2cfa790bea4d4dc92d","Prolific","1","","34301","","46","2","<h3>Rate your confidence:</h3>
            <div id=""conf1"" class=""conf"" style=""height:25px; width:154px; margin-top:2px; margin-left:15px;""></div>
            <div id=""conf2"" class=""conf"" style=""height:25px; width:154px; margin-top:2px; margin-left:169px;""></div>
            <div id=""conf3"" class=""conf"" style=""height:25px; width:154px; margin-top:2px; margin-left:323px;""></div>
            <div id=""conf4"" class=""conf"" style=""height:25px; width:154px; margin-top:2px; margin-left:477px;""></div>
          <div id=""conf5"" class=""conf"" style=""height:25px; width:154px; margin-top:2px; margin-left:631px;""></div>","6","","","","","","","","","","","","50",""
"","","","","","","","","","","","Summary Trial","335","2.1.0","359519","67806a2cfa790bea4d4dc92d","Prolific","1","","594","","46","2","","e","339","313","","","","true","3.2499999999999996","0","","Test","26","","6"
"","","","","","","","","","","","html-keyboard-response","337","2.1.0","360532","67806a2cfa790bea4d4dc92d","Prolific","1","","null","","47","2","<p style=""font-size: 70pt;"">+</p>","null","","","","","","","","","","","","",""
"","","","","","","","","","","","Stimulus Presentation","338","2.1.0","360850","67806a2cfa790bea4d4dc92d","Prolific","1","","null","","47","2","","null","342","313","313","29","w","true","3.3499999999999996","","","","","",""
"","","","","","","","","","","","Stimulus Response","339","2.1.0","361937","67806a2cfa790bea4d4dc92d","Prolific","1","","1084","","47","2","","w","","","","","","","","1","","","","",""
"","","","","","","","","","","","Feedback","340","2.1.0","362445","67806a2cfa790bea4d4dc92d","Prolific","1","","null","","47","2","","null","","","","","","","","","","","","",""
"","","","","","","","","","","","Confidence Rating","341","2.1.0","365475","67806a2cfa790bea4d4dc92d","Prolific","1","","3028","","47","2","<h3>Rate your confidence:</h3>
            <div id=""conf1"" class=""conf"" style=""height:25px; width:154px; margin-top:2px; margin-left:15px;""></div>
            <div id=""conf2"" class=""conf"" style=""height:25px; width:154px; margin-top:2px; margin-left:169px;""></div>
            <div id=""conf3"" class=""conf"" style=""height:25px; width:154px; margin-top:2px; margin-left:323px;""></div>
            <div id=""conf4"" class=""conf"" style=""height:25px; width:154px; margin-top:2px; margin-left:477px;""></div>
          <div id=""conf5"" class=""conf"" style=""height:25px; width:154px; margin-top:2px; margin-left:631px;""></div>","6","","","","","","","","","","","","50",""
"","","","","","","","","","","","Summary Trial","342","2.1.0","365476","67806a2cfa790bea4d4dc92d","Prolific","1","","1084","","47","2","","w","342","313","","","","true","3.3499999999999996","1","","Test","29","","6"
"","","","","","","","","","","","html-keyboard-response","344","2.1.0","366483","67806a2cfa790bea4d4dc92d","Prolific","1","","null","","48","2","<p style=""font-size: 70pt;"">+</p>","null","","","","","","","","","","","","",""
"","","","","","","","","","","","Stimulus Presentation","345","2.1.0","366791","67806a2cfa790bea4d4dc92d","Prolific","1","","null","","48","2","","null","313","342","313","29","e","false","3.3499999999999996","","","","","",""
"","","","","","","","","","","","Stimulus Response","346","2.1.0","367266","67806a2cfa790bea4d4dc92d","Prolific","1","","473","","48","2","","w","","","","","","","","0","","","","",""
"","","","","","","","","","","","Feedback","347","2.1.0","367774","67806a2cfa790bea4d4dc92d","Prolific","1","","null","","48","2","","null","","","","","","","","","","","","",""
"","","","","","","","","","","","Confidence Rating","348","2.1.0","370130","67806a2cfa790bea4d4dc92d","Prolific","1","","2354","","48","2","<h3>Rate your confidence:</h3>
            <div id=""conf1"" class=""conf"" style=""height:25px; width:154px; margin-top:2px; margin-left:15px;""></div>
            <div id=""conf2"" class=""conf"" style=""height:25px; width:154px; margin-top:2px; margin-left:169px;""></div>
            <div id=""conf3"" class=""conf"" style=""height:25px; width:154px; margin-top:2px; margin-left:323px;""></div>
            <div id=""conf4"" class=""conf"" style=""height:25px; width:154px; margin-top:2px; margin-left:477px;""></div>
          <div id=""conf5"" class=""conf"" style=""height:25px; width:154px; margin-top:2px; margin-left:631px;""></div>","6","","","","","","","","","","","","50",""
"","","","","","","","","","","","Summary Trial","349","2.1.0","370131","67806a2cfa790bea4d4dc92d","Prolific","1","","473","","48","2","","w","313","342","","","","false","3.3499999999999996","0","","Test","29","","6"
"","","","","","","","","","","","html-keyboard-response","351","2.1.0","371144","67806a2cfa790bea4d4dc92d","Prolific","1","","null","","49","2","<p style=""font-size: 70pt;"">+</p>","null","","","","","","","","","","","","",""
"","","","","","","","","","","","Stimulus Presentation","352","2.1.0","371452","67806a2cfa790bea4d4dc92d","Prolific","1","","null","","49","2","","null","345","313","313","32","w","true","3.4499999999999997","","","","","",""
"","","","","","","","","","","","Stimulus Response","353","2.1.0","372330","67806a2cfa790bea4d4dc92d","Prolific","1","","877","","49","2","","e","","","","","","","","0","","","","",""
"","","","","","","","","","","","Feedback","354","2.1.0","372833","67806a2cfa790bea4d4dc92d","Prolific","1","","null","","49","2","","null","","","","","","","","","","","","",""
"","","","","","","","","","","","Confidence Rating","355","2.1.0","375252","67806a2cfa790bea4d4dc92d","Prolific","1","","2417","","49","2","<h3>Rate your confidence:</h3>
            <div id=""conf1"" class=""conf"" style=""height:25px; width:154px; margin-top:2px; margin-left:15px;""></div>
            <div id=""conf2"" class=""conf"" style=""height:25px; width:154px; margin-top:2px; margin-left:169px;""></div>
            <div id=""conf3"" class=""conf"" style=""height:25px; width:154px; margin-top:2px; margin-left:323px;""></div>
            <div id=""conf4"" class=""conf"" style=""height:25px; width:154px; margin-top:2px; margin-left:477px;""></div>
          <div id=""conf5"" class=""conf"" style=""height:25px; width:154px; margin-top:2px; margin-left:631px;""></div>","6","","","","","","","","","","","","50",""
"","","","","","","","","","","","Summary Trial","356","2.1.0","375252","67806a2cfa790bea4d4dc92d","Prolific","1","","877","","49","2","","e","345","313","","","","true","3.4499999999999997","0","","Test","32","","6"
"","","","","","","","","","","","html-keyboard-response","358","2.1.0","376256","67806a2cfa790bea4d4dc92d","Prolific","1","","null","","50","2","<p style=""font-size: 70pt;"">+</p>","null","","","","","","","","","","","","",""
"","","","","","","","","","","","Stimulus Presentation","359","2.1.0","376567","67806a2cfa790bea4d4dc92d","Prolific","1","","null","","50","2","","null","313","348","313","35","e","false","3.55","","","","","",""
"","","","","","","","","","","","Stimulus Response","360","2.1.0","377170","67806a2cfa790bea4d4dc92d","Prolific","1","","600","","50","2","","e","","","","","","","","1","","","","",""
"","","","","","","","","","","","Feedback","361","2.1.0","377676","67806a2cfa790bea4d4dc92d","Prolific","1","","null","","50","2","","null","","","","","","","","","","","","",""
"","","","","","","","","","","","Confidence Rating","362","2.1.0","380795","67806a2cfa790bea4d4dc92d","Prolific","1","","3117","","50","2","<h3>Rate your confidence:</h3>
            <div id=""conf1"" class=""conf"" style=""height:25px; width:154px; margin-top:2px; margin-left:15px;""></div>
            <div id=""conf2"" class=""conf"" style=""height:25px; width:154px; margin-top:2px; margin-left:169px;""></div>
            <div id=""conf3"" class=""conf"" style=""height:25px; width:154px; margin-top:2px; margin-left:323px;""></div>
            <div id=""conf4"" class=""conf"" style=""height:25px; width:154px; margin-top:2px; margin-left:477px;""></div>
          <div id=""conf5"" class=""conf"" style=""height:25px; width:154px; margin-top:2px; margin-left:631px;""></div>","6","","","","","","","","","","","","50",""
"","","","","","","","","","","","Summary Trial","363","2.1.0","380796","67806a2cfa790bea4d4dc92d","Prolific","1","","600","","50","2","","e","313","348","","","","false","3.55","1","","Test","35","","6"
"","","","","","","","","","","","html-keyboard-response","365","2.1.0","381812","67806a2cfa790bea4d4dc92d","Prolific","1","","null","","51","2","<p style=""font-size: 70pt;"">+</p>","null","","","","","","","","","","","","",""
"","","","","","","","","","","","Stimulus Presentation","366","2.1.0","382124","67806a2cfa790bea4d4dc92d","Prolific","1","","null","","51","2","","null","313","348","313","35","e","false","3.55","","","","","",""
"","","","","","","","","","","","Stimulus Response","367","2.1.0","383059","67806a2cfa790bea4d4dc92d","Prolific","1","","932","","51","2","","e","","","","","","","","1","","","","",""
"","","","","","","","","","","","Feedback","368","2.1.0","383563","67806a2cfa790bea4d4dc92d","Prolific","1","","null","","51","2","","null","","","","","","","","","","","","",""
"","","","","","","","","","","","Confidence Rating","369","2.1.0","385949","67806a2cfa790bea4d4dc92d","Prolific","1","","2384","","51","2","<h3>Rate your confidence:</h3>
            <div id=""conf1"" class=""conf"" style=""height:25px; width:154px; margin-top:2px; margin-left:15px;""></div>
            <div id=""conf2"" class=""conf"" style=""height:25px; width:154px; margin-top:2px; margin-left:169px;""></div>
            <div id=""conf3"" class=""conf"" style=""height:25px; width:154px; margin-top:2px; margin-left:323px;""></div>
            <div id=""conf4"" class=""conf"" style=""height:25px; width:154px; margin-top:2px; margin-left:477px;""></div>
          <div id=""conf5"" class=""conf"" style=""height:25px; width:154px; margin-top:2px; margin-left:631px;""></div>","6","","","","","","","","","","","","50",""
"","","","","","","","","","","","Summary Trial","370","2.1.0","385950","67806a2cfa790bea4d4dc92d","Prolific","1","","932","","51","2","","e","313","348","","","","false","3.55","1","","Test","35","","6"
"","","","","","","","","","","","html-keyboard-response","372","2.1.0","386952","67806a2cfa790bea4d4dc92d","Prolific","1","","null","","52","2","<p style=""font-size: 70pt;"">+</p>","null","","","","","","","","","","","","",""
"","","","","","","","","","","","Stimulus Presentation","373","2.1.0","387271","67806a2cfa790bea4d4dc92d","Prolific","1","","null","","52","2","","null","345","313","313","32","w","true","3.4499999999999997","","","","","",""
"","","","","","","","","","","","Stimulus Response","374","2.1.0","387577","67806a2cfa790bea4d4dc92d","Prolific","1","","303","","52","2","","w","","","","","","","","1","","","","",""
"","","","","","","","","","","","Feedback","375","2.1.0","388080","67806a2cfa790bea4d4dc92d","Prolific","1","","null","","52","2","","null","","","","","","","","","","","","",""
"","","","","","","","","","","","Confidence Rating","376","2.1.0","390505","67806a2cfa790bea4d4dc92d","Prolific","1","","2423","","52","2","<h3>Rate your confidence:</h3>
            <div id=""conf1"" class=""conf"" style=""height:25px; width:154px; margin-top:2px; margin-left:15px;""></div>
            <div id=""conf2"" class=""conf"" style=""height:25px; width:154px; margin-top:2px; margin-left:169px;""></div>
            <div id=""conf3"" class=""conf"" style=""height:25px; width:154px; margin-top:2px; margin-left:323px;""></div>
            <div id=""conf4"" class=""conf"" style=""height:25px; width:154px; margin-top:2px; margin-left:477px;""></div>
          <div id=""conf5"" class=""conf"" style=""height:25px; width:154px; margin-top:2px; margin-left:631px;""></div>","6","","","","","","","","","","","","50",""
"","","","","","","","","","","","Summary Trial","377","2.1.0","390506","67806a2cfa790bea4d4dc92d","Prolific","1","","303","","52","2","","w","345","313","","","","true","3.4499999999999997","1","","Test","32","","6"
"","","","","","","","","","","","html-keyboard-response","379","2.1.0","391515","67806a2cfa790bea4d4dc92d","Prolific","1","","null","","53","2","<p style=""font-size: 70pt;"">+</p>","null","","","","","","","","","","","","",""
"","","","","","","","","","","","Stimulus Presentation","380","2.1.0","391826","67806a2cfa790bea4d4dc92d","Prolific","1","","null","","53","2","","null","313","345","313","32","e","false","3.4499999999999997","","","","","",""
"","","","","","","","","","","","Stimulus Response","381","2.1.0","392253","67806a2cfa790bea4d4dc92d","Prolific","1","","424","","53","2","","e","","","","","","","","1","","","","",""
"","","","","","","","","","","","Feedback","382","2.1.0","392765","67806a2cfa790bea4d4dc92d","Prolific","1","","null","","53","2","","null","","","","","","","","","","","","",""
"","","","","","","","","","","","Confidence Rating","383","2.1.0","395112","67806a2cfa790bea4d4dc92d","Prolific","1","","2345","","53","2","<h3>Rate your confidence:</h3>
            <div id=""conf1"" class=""conf"" style=""height:25px; width:154px; margin-top:2px; margin-left:15px;""></div>
            <div id=""conf2"" class=""conf"" style=""height:25px; width:154px; margin-top:2px; margin-left:169px;""></div>
            <div id=""conf3"" class=""conf"" style=""height:25px; width:154px; margin-top:2px; margin-left:323px;""></div>
            <div id=""conf4"" class=""conf"" style=""height:25px; width:154px; margin-top:2px; margin-left:477px;""></div>
          <div id=""conf5"" class=""conf"" style=""height:25px; width:154px; margin-top:2px; margin-left:631px;""></div>","5","","","","","","","","","","","","50",""
"","","","","","","","","","","","Summary Trial","384","2.1.0","395113","67806a2cfa790bea4d4dc92d","Prolific","1","","424","","53","2","","e","313","345","","","","false","3.4499999999999997","1","","Test","32","","5"
"","","","","","","","","","","","html-keyboard-response","386","2.1.0","396117","67806a2cfa790bea4d4dc92d","Prolific","1","","null","","54","2","<p style=""font-size: 70pt;"">+</p>","null","","","","","","","","","","","","",""
"","","","","","","","","","","","Stimulus Presentation","387","2.1.0","396427","67806a2cfa790bea4d4dc92d","Prolific","1","","null","","54","2","","null","342","313","313","29","w","true","3.3499999999999996","","","","","",""
"","","","","","","","","","","","Stimulus Response","388","2.1.0","396903","67806a2cfa790bea4d4dc92d","Prolific","1","","474","","54","2","","e","","","","","","","","0","","","","",""
"","","","","","","","","","","","Feedback","389","2.1.0","397410","67806a2cfa790bea4d4dc92d","Prolific","1","","null","","54","2","","null","","","","","","","","","","","","",""
"","","","","","","","","","","","Confidence Rating","390","2.1.0","399712","67806a2cfa790bea4d4dc92d","Prolific","1","","2299","","54","2","<h3>Rate your confidence:</h3>
            <div id=""conf1"" class=""conf"" style=""height:25px; width:154px; margin-top:2px; margin-left:15px;""></div>
            <div id=""conf2"" class=""conf"" style=""height:25px; width:154px; margin-top:2px; margin-left:169px;""></div>
            <div id=""conf3"" class=""conf"" style=""height:25px; width:154px; margin-top:2px; margin-left:323px;""></div>
            <div id=""conf4"" class=""conf"" style=""height:25px; width:154px; margin-top:2px; margin-left:477px;""></div>
          <div id=""conf5"" class=""conf"" style=""height:25px; width:154px; margin-top:2px; margin-left:631px;""></div>","6","","","","","","","","","","","","50",""
"","","","","","","","","","","","Summary Trial","391","2.1.0","399713","67806a2cfa790bea4d4dc92d","Prolific","1","","474","","54","2","","e","342","313","","","","true","3.3499999999999996","0","","Test","29","","6"
"","","","","","","","","","","","html-keyboard-response","393","2.1.0","400721","67806a2cfa790bea4d4dc92d","Prolific","1","","null","","55","2","<p style=""font-size: 70pt;"">+</p>","null","","","","","","","","","","","","",""
"","","","","","","","","","","","Stimulus Presentation","394","2.1.0","401041","67806a2cfa790bea4d4dc92d","Prolific","1","","null","","55","2","","null","313","345","313","32","e","false","3.4499999999999997","","","","","",""
"","","","","","","","","","","","Stimulus Response","395","2.1.0","401437","67806a2cfa790bea4d4dc92d","Prolific","1","","393","","55","2","","e","","","","","","","","1","","","","",""
"","","","","","","","","","","","Feedback","396","2.1.0","401943","67806a2cfa790bea4d4dc92d","Prolific","1","","null","","55","2","","null","","","","","","","","","","","","",""
"","","","","","","","","","","","Confidence Rating","397","2.1.0","404301","67806a2cfa790bea4d4dc92d","Prolific","1","","2356","","55","2","<h3>Rate your confidence:</h3>
            <div id=""conf1"" class=""conf"" style=""height:25px; width:154px; margin-top:2px; margin-left:15px;""></div>
            <div id=""conf2"" class=""conf"" style=""height:25px; width:154px; margin-top:2px; margin-left:169px;""></div>
            <div id=""conf3"" class=""conf"" style=""height:25px; width:154px; margin-top:2px; margin-left:323px;""></div>
            <div id=""conf4"" class=""conf"" style=""height:25px; width:154px; margin-top:2px; margin-left:477px;""></div>
          <div id=""conf5"" class=""conf"" style=""height:25px; width:154px; margin-top:2px; margin-left:631px;""></div>","6","","","","","","","","","","","","50",""
"","","","","","","","","","","","Summary Trial","398","2.1.0","404302","67806a2cfa790bea4d4dc92d","Prolific","1","","393","","55","2","","e","313","345","","","","false","3.4499999999999997","1","","Test","32","","6"
"","","","","","","","","","","","html-keyboard-response","400","2.1.0","405309","67806a2cfa790bea4d4dc92d","Prolific","1","","null","","56","2","<p style=""font-size: 70pt;"">+</p>","null","","","","","","","","","","","","",""
"","","","","","","","","","","","Stimulus Presentation","401","2.1.0","405626","67806a2cfa790bea4d4dc92d","Prolific","1","","null","","56","2","","null","345","313","313","32","w","true","3.4499999999999997","","","","","",""
"","","","","","","","","","","","Stimulus Response","402","2.1.0","406078","67806a2cfa790bea4d4dc92d","Prolific","1","","448","","56","2","","w","","","","","","","","1","","","","",""
"","","","","","","","","","","","Feedback","403","2.1.0","406586","67806a2cfa790bea4d4dc92d","Prolific","1","","null","","56","2","","null","","","","","","","","","","","","",""
"","","","","","","","","","","","Confidence Rating","404","2.1.0","409099","67806a2cfa790bea4d4dc92d","Prolific","1","","2512","","56","2","<h3>Rate your confidence:</h3>
            <div id=""conf1"" class=""conf"" style=""height:25px; width:154px; margin-top:2px; margin-left:15px;""></div>
            <div id=""conf2"" class=""conf"" style=""height:25px; width:154px; margin-top:2px; margin-left:169px;""></div>
            <div id=""conf3"" class=""conf"" style=""height:25px; width:154px; margin-top:2px; margin-left:323px;""></div>
            <div id=""conf4"" class=""conf"" style=""height:25px; width:154px; margin-top:2px; margin-left:477px;""></div>
          <div id=""conf5"" class=""conf"" style=""height:25px; width:154px; margin-top:2px; margin-left:631px;""></div>","4","","","","","","","","","","","","50",""
"","","","","","","","","","","","Summary Trial","405","2.1.0","409100","67806a2cfa790bea4d4dc92d","Prolific","1","","448","","56","2","","w","345","313","","","","true","3.4499999999999997","1","","Test","32","","4"
"","","","","","","","","","","","html-keyboard-response","407","2.1.0","410114","67806a2cfa790bea4d4dc92d","Prolific","1","","null","","57","2","<p style=""font-size: 70pt;"">+</p>","null","","","","","","","","","","","","",""
"","","","","","","","","","","","Stimulus Presentation","408","2.1.0","410428","67806a2cfa790bea4d4dc92d","Prolific","1","","null","","57","2","","null","342","313","313","29","w","true","3.3499999999999996","","","","","",""
"","","","","","","","","","","","Stimulus Response","409","2.1.0","410892","67806a2cfa790bea4d4dc92d","Prolific","1","","463","","57","2","","w","","","","","","","","1","","","","",""
"","","","","","","","","","","","Feedback","410","2.1.0","411404","67806a2cfa790bea4d4dc92d","Prolific","1","","null","","57","2","","null","","","","","","","","","","","","",""
"","","","","","","","","","","","Confidence Rating","411","2.1.0","413824","67806a2cfa790bea4d4dc92d","Prolific","1","","2419","","57","2","<h3>Rate your confidence:</h3>
            <div id=""conf1"" class=""conf"" style=""height:25px; width:154px; margin-top:2px; margin-left:15px;""></div>
            <div id=""conf2"" class=""conf"" style=""height:25px; width:154px; margin-top:2px; margin-left:169px;""></div>
            <div id=""conf3"" class=""conf"" style=""height:25px; width:154px; margin-top:2px; margin-left:323px;""></div>
            <div id=""conf4"" class=""conf"" style=""height:25px; width:154px; margin-top:2px; margin-left:477px;""></div>
          <div id=""conf5"" class=""conf"" style=""height:25px; width:154px; margin-top:2px; margin-left:631px;""></div>","5","","","","","","","","","","","","50",""
"","","","","","","","","","","","Summary Trial","412","2.1.0","413825","67806a2cfa790bea4d4dc92d","Prolific","1","","463","","57","2","","w","342","313","","","","true","3.3499999999999996","1","","Test","29","","5"
"","","","","","","","","","","","html-keyboard-response","414","2.1.0","414833","67806a2cfa790bea4d4dc92d","Prolific","1","","null","","58","2","<p style=""font-size: 70pt;"">+</p>","null","","","","","","","","","","","","",""
"","","","","","","","","","","","Stimulus Presentation","415","2.1.0","415154","67806a2cfa790bea4d4dc92d","Prolific","1","","null","","58","2","","null","313","342","313","29","e","false","3.3499999999999996","","","","","",""
"","","","","","","","","","","","Stimulus Response","416","2.1.0","415707","67806a2cfa790bea4d4dc92d","Prolific","1","","550","","58","2","","e","","","","","","","","1","","","","",""
"","","","","","","","","","","","Feedback","417","2.1.0","416216","67806a2cfa790bea4d4dc92d","Prolific","1","","null","","58","2","","null","","","","","","","","","","","","",""
"","","","","","","","","","","","Confidence Rating","418","2.1.0","418611","67806a2cfa790bea4d4dc92d","Prolific","1","","2392","","58","2","<h3>Rate your confidence:</h3>
            <div id=""conf1"" class=""conf"" style=""height:25px; width:154px; margin-top:2px; margin-left:15px;""></div>
            <div id=""conf2"" class=""conf"" style=""height:25px; width:154px; margin-top:2px; margin-left:169px;""></div>
            <div id=""conf3"" class=""conf"" style=""height:25px; width:154px; margin-top:2px; margin-left:323px;""></div>
            <div id=""conf4"" class=""conf"" style=""height:25px; width:154px; margin-top:2px; margin-left:477px;""></div>
          <div id=""conf5"" class=""conf"" style=""height:25px; width:154px; margin-top:2px; margin-left:631px;""></div>","6","","","","","","","","","","","","50",""
"","","","","","","","","","","","Summary Trial","419","2.1.0","418612","67806a2cfa790bea4d4dc92d","Prolific","1","","550","","58","2","","e","313","342","","","","false","3.3499999999999996","1","","Test","29","","6"
"","","","","","","","","","","","html-keyboard-response","421","2.1.0","419624","67806a2cfa790bea4d4dc92d","Prolific","1","","null","","59","2","<p style=""font-size: 70pt;"">+</p>","null","","","","","","","","","","","","",""
"","","","","","","","","","","","Stimulus Presentation","422","2.1.0","419931","67806a2cfa790bea4d4dc92d","Prolific","1","","null","","59","2","","null","339","313","313","26","w","true","3.2499999999999996","","","","","",""
"","","","","","","","","","","","Stimulus Response","423","2.1.0","420289","67806a2cfa790bea4d4dc92d","Prolific","1","","356","","59","2","","w","","","","","","","","1","","","","",""
"","","","","","","","","","","","Feedback","424","2.1.0","420791","67806a2cfa790bea4d4dc92d","Prolific","1","","null","","59","2","","null","","","","","","","","","","","","",""
"","","","","","","","","","","","Confidence Rating","425","2.1.0","424278","67806a2cfa790bea4d4dc92d","Prolific","1","","3486","","59","2","<h3>Rate your confidence:</h3>
            <div id=""conf1"" class=""conf"" style=""height:25px; width:154px; margin-top:2px; margin-left:15px;""></div>
            <div id=""conf2"" class=""conf"" style=""height:25px; width:154px; margin-top:2px; margin-left:169px;""></div>
            <div id=""conf3"" class=""conf"" style=""height:25px; width:154px; margin-top:2px; margin-left:323px;""></div>
            <div id=""conf4"" class=""conf"" style=""height:25px; width:154px; margin-top:2px; margin-left:477px;""></div>
          <div id=""conf5"" class=""conf"" style=""height:25px; width:154px; margin-top:2px; margin-left:631px;""></div>","5","","","","","","","","","","","","50",""
"","","","","","","","","","","","Summary Trial","426","2.1.0","424278","67806a2cfa790bea4d4dc92d","Prolific","1","","356","","59","2","","w","339","313","","","","true","3.2499999999999996","1","","Test","26","","5"
"","","","","","","","","","","","html-keyboard-response","428","2.1.0","425282","67806a2cfa790bea4d4dc92d","Prolific","1","","null","","60","2","<p style=""font-size: 70pt;"">+</p>","null","","","","","","","","","","","","",""
"","","","","","","","","","","","Stimulus Presentation","429","2.1.0","425596","67806a2cfa790bea4d4dc92d","Prolific","1","","null","","60","2","","null","313","339","313","26","e","false","3.2499999999999996","","","","","",""
"","","","","","","","","","","","Stimulus Response","430","2.1.0","426150","67806a2cfa790bea4d4dc92d","Prolific","1","","550","","60","2","","w","","","","","","","","0","","","","",""
"","","","","","","","","","","","Feedback","431","2.1.0","426655","67806a2cfa790bea4d4dc92d","Prolific","1","","null","","60","2","","null","","","","","","","","","","","","",""
"","","","","","","","","","","","Confidence Rating","432","2.1.0","434229","67806a2cfa790bea4d4dc92d","Prolific","1","","7573","","60","2","<h3>Rate your confidence:</h3>
            <div id=""conf1"" class=""conf"" style=""height:25px; width:154px; margin-top:2px; margin-left:15px;""></div>
            <div id=""conf2"" class=""conf"" style=""height:25px; width:154px; margin-top:2px; margin-left:169px;""></div>
            <div id=""conf3"" class=""conf"" style=""height:25px; width:154px; margin-top:2px; margin-left:323px;""></div>
            <div id=""conf4"" class=""conf"" style=""height:25px; width:154px; margin-top:2px; margin-left:477px;""></div>
          <div id=""conf5"" class=""conf"" style=""height:25px; width:154px; margin-top:2px; margin-left:631px;""></div>","5","","","","","","","","","","","","50",""
"","","","","","","","","","","","Summary Trial","433","2.1.0","434230","67806a2cfa790bea4d4dc92d","Prolific","1","","550","","60","2","","w","313","339","","","","false","3.2499999999999996","0","","Test","26","","5"
"","","","","","","","","","","","html-keyboard-response","435","2.1.0","435234","67806a2cfa790bea4d4dc92d","Prolific","1","","null","","61","2","<p style=""font-size: 70pt;"">+</p>","null","","","","","","","","","","","","",""
"","","","","","","","","","","","Stimulus Presentation","436","2.1.0","435555","67806a2cfa790bea4d4dc92d","Prolific","1","","null","","61","2","","null","342","313","313","29","w","true","3.3499999999999996","","","","","",""
"","","","","","","","","","","","Stimulus Response","437","2.1.0","436510","67806a2cfa790bea4d4dc92d","Prolific","1","","952","","61","2","","w","","","","","","","","1","","","","",""
"","","","","","","","","","","","Feedback","438","2.1.0","437013","67806a2cfa790bea4d4dc92d","Prolific","1","","null","","61","2","","null","","","","","","","","","","","","",""
"","","","","","","","","","","","Confidence Rating","439","2.1.0","441944","67806a2cfa790bea4d4dc92d","Prolific","1","","4928","","61","2","<h3>Rate your confidence:</h3>
            <div id=""conf1"" class=""conf"" style=""height:25px; width:154px; margin-top:2px; margin-left:15px;""></div>
            <div id=""conf2"" class=""conf"" style=""height:25px; width:154px; margin-top:2px; margin-left:169px;""></div>
            <div id=""conf3"" class=""conf"" style=""height:25px; width:154px; margin-top:2px; margin-left:323px;""></div>
            <div id=""conf4"" class=""conf"" style=""height:25px; width:154px; margin-top:2px; margin-left:477px;""></div>
          <div id=""conf5"" class=""conf"" style=""height:25px; width:154px; margin-top:2px; margin-left:631px;""></div>","5","","","","","","","","","","","","50",""
"","","","","","","","","","","","Summary Trial","440","2.1.0","441945","67806a2cfa790bea4d4dc92d","Prolific","1","","952","","61","2","","w","342","313","","","","true","3.3499999999999996","1","","Test","29","","5"
"","","","","","","","","","","","html-keyboard-response","442","2.1.0","442957","67806a2cfa790bea4d4dc92d","Prolific","1","","null","","62","2","<p style=""font-size: 70pt;"">+</p>","null","","","","","","","","","","","","",""
"","","","","","","","","","","","Stimulus Presentation","443","2.1.0","443268","67806a2cfa790bea4d4dc92d","Prolific","1","","null","","62","2","","null","313","342","313","29","e","false","3.3499999999999996","","","","","",""
"","","","","","","","","","","","Stimulus Response","444","2.1.0","443650","67806a2cfa790bea4d4dc92d","Prolific","1","","380","","62","2","","e","","","","","","","","1","","","","",""
"","","","","","","","","","","","Feedback","445","2.1.0","444155","67806a2cfa790bea4d4dc92d","Prolific","1","","null","","62","2","","null","","","","","","","","","","","","",""
"","","","","","","","","","","","Confidence Rating","446","2.1.0","446620","67806a2cfa790bea4d4dc92d","Prolific","1","","2464","","62","2","<h3>Rate your confidence:</h3>
