"width","height","webaudio","browser","browser_version","mobile","os","fullscreen","vsync_rate","webcam","microphone","trial_type","trial_index","plugin_version","time_elapsed","participant_id","Source","condition","success","rt","view_history","trialnum","blocknum","stimulus","response","leftDots","rightDots","baseline","increment","correct_key","target_left","current_log","correct","value","phase","dot_difference","slider_start","confidence"
"1920","945","true","chrome","135.0.0","false","Windows 10","true","61.22","true","true","browser-check","0","2.1.0","987","67eb09d69af29d8b61649c0d","Prolific","1","","","","","","","","","","","","","","","","","","","",""
"","","","","","","","","","","","fullscreen","1","2.1.0","21757","67eb09d69af29d8b61649c0d","Prolific","1","true","19763","","","","","","","","","","","","","","","","","",""
"","","","","","","","","","","","instructions","2","2.1.0","32669","67eb09d69af29d8b61649c0d","Prolific","1","","10910","[{""page_index"":0,""viewing_time"":10910}]","","","","","","","","","","","","","","","","",""
"","","","","","","","","","","","instructions","5","2.1.0","49534","67eb09d69af29d8b61649c0d","Prolific","1","","16864","[{""page_index"":0,""viewing_time"":11389},{""page_index"":1,""viewing_time"":5476}]","","","","","","","","","","","","","","","","",""
"","","","","","","","","","","","html-keyboard-response","7","2.1.0","50540","67eb09d69af29d8b61649c0d","Prolific","1","","null","","1","1","<p style=""font-size: 70pt;"">+</p>","null","","","","","","","","","","","","",""
"","","","","","","","","","","","Stimulus Presentation","8","2.1.0","50854","67eb09d69af29d8b61649c0d","Prolific","1","","null","","1","1","","null","313","383","313","70","e","false","4.25","","","","","",""
"","","","","","","","","","","","Stimulus Response","9","2.1.0","57134","67eb09d69af29d8b61649c0d","Prolific","1","","6277","","1","1","","w","","","","","","","","0","","","","",""
"","","","","","","","","","","","Feedback","10","2.1.0","57651","67eb09d69af29d8b61649c0d","Prolific","1","","null","","1","1","","null","","","","","","","","","","","","",""
"","","","","","","","","","","","Summary Trial","12","2.1.0","57657","67eb09d69af29d8b61649c0d","Prolific","1","","6277","","1","1","","w","313","383","","","","false","4.25","0","","Practice","70","",""
"","","","","","","","","","","","html-keyboard-response","14","2.1.0","58676","67eb09d69af29d8b61649c0d","Prolific","1","","null","","2","1","<p style=""font-size: 70pt;"">+</p>","null","","","","","","","","","","","","",""
"","","","","","","","","","","","Stimulus Presentation","15","2.1.0","58984","67eb09d69af29d8b61649c0d","Prolific","1","","null","","2","1","","null","418","313","313","105","w","true","4.65","","","","","",""
"","","","","","","","","","","","Stimulus Response","16","2.1.0","60562","67eb09d69af29d8b61649c0d","Prolific","1","","1576","","2","1","","e","","","","","","","","0","","","","",""
"","","","","","","","","","","","Feedback","17","2.1.0","61067","67eb09d69af29d8b61649c0d","Prolific","1","","null","","2","1","","null","","","","","","","","","","","","",""
"","","","","","","","","","","","Summary Trial","19","2.1.0","61067","67eb09d69af29d8b61649c0d","Prolific","1","","1576","","2","1","","e","418","313","","","","true","4.65","0","","Practice","105","",""
"","","","","","","","","","","","html-keyboard-response","21","2.1.0","62075","67eb09d69af29d8b61649c0d","Prolific","1","","null","","3","1","<p style=""font-size: 70pt;"">+</p>","null","","","","","","","","","","","","",""
"","","","","","","","","","","","Stimulus Presentation","22","2.1.0","62390","67eb09d69af29d8b61649c0d","Prolific","1","","null","","3","1","","null","313","469","313","156","e","false","5.050000000000001","","","","","",""
"","","","","","","","","","","","Stimulus Response","23","2.1.0","63084","67eb09d69af29d8b61649c0d","Prolific","1","","693","","3","1","","e","","","","","","","","1","","","","",""
"","","","","","","","","","","","Feedback","24","2.1.0","63610","67eb09d69af29d8b61649c0d","Prolific","1","","null","","3","1","","null","","","","","","","","","","","","",""
"","","","","","","","","","","","Summary Trial","26","2.1.0","63611","67eb09d69af29d8b61649c0d","Prolific","1","","693","","3","1","","e","313","469","","","","false","5.050000000000001","1","","Practice","156","",""
"","","","","","","","","","","","html-keyboard-response","28","2.1.0","64629","67eb09d69af29d8b61649c0d","Prolific","1","","null","","4","1","<p style=""font-size: 70pt;"">+</p>","null","","","","","","","","","","","","",""
"","","","","","","","","","","","Stimulus Presentation","29","2.1.0","64941","67eb09d69af29d8b61649c0d","Prolific","1","","null","","4","1","","null","469","313","313","156","w","true","5.050000000000001","","","","","",""
"","","","","","","","","","","","Stimulus Response","30","2.1.0","65306","67eb09d69af29d8b61649c0d","Prolific","1","","363","","4","1","","w","","","","","","","","1","","","","",""
"","","","","","","","","","","","Feedback","31","2.1.0","65819","67eb09d69af29d8b61649c0d","Prolific","1","","null","","4","1","","null","","","","","","","","","","","","",""
"","","","","","","","","","","","Summary Trial","33","2.1.0","65819","67eb09d69af29d8b61649c0d","Prolific","1","","363","","4","1","","w","469","313","","","","true","5.050000000000001","1","","Practice","156","",""
"","","","","","","","","","","","html-keyboard-response","35","2.1.0","66832","67eb09d69af29d8b61649c0d","Prolific","1","","null","","5","1","<p style=""font-size: 70pt;"">+</p>","null","","","","","","","","","","","","",""
"","","","","","","","","","","","Stimulus Presentation","36","2.1.0","67141","67eb09d69af29d8b61649c0d","Prolific","1","","null","","5","1","","null","313","418","313","105","e","false","4.65","","","","","",""
"","","","","","","","","","","","Stimulus Response","37","2.1.0","67565","67eb09d69af29d8b61649c0d","Prolific","1","","417","","5","1","","e","","","","","","","","1","","","","",""
"","","","","","","","","","","","Feedback","38","2.1.0","68073","67eb09d69af29d8b61649c0d","Prolific","1","","null","","5","1","","null","","","","","","","","","","","","",""
"","","","","","","","","","","","Summary Trial","40","2.1.0","68074","67eb09d69af29d8b61649c0d","Prolific","1","","417","","5","1","","e","313","418","","","","false","4.65","1","","Practice","105","",""
"","","","","","","","","","","","html-keyboard-response","42","2.1.0","69087","67eb09d69af29d8b61649c0d","Prolific","1","","null","","6","1","<p style=""font-size: 70pt;"">+</p>","null","","","","","","","","","","","","",""
"","","","","","","","","","","","Stimulus Presentation","43","2.1.0","69395","67eb09d69af29d8b61649c0d","Prolific","1","","null","","6","1","","null","418","313","313","105","w","true","4.65","","","","","",""
"","","","","","","","","","","","Stimulus Response","44","2.1.0","69607","67eb09d69af29d8b61649c0d","Prolific","1","","210","","6","1","","w","","","","","","","","1","","","","",""
"","","","","","","","","","","","Feedback","45","2.1.0","70109","67eb09d69af29d8b61649c0d","Prolific","1","","null","","6","1","","null","","","","","","","","","","","","",""
"","","","","","","","","","","","Summary Trial","47","2.1.0","70110","67eb09d69af29d8b61649c0d","Prolific","1","","210","","6","1","","w","418","313","","","","true","4.65","1","","Practice","105","",""
"","","","","","","","","","","","html-keyboard-response","49","2.1.0","71123","67eb09d69af29d8b61649c0d","Prolific","1","","null","","7","1","<p style=""font-size: 70pt;"">+</p>","null","","","","","","","","","","","","",""
"","","","","","","","","","","","Stimulus Presentation","50","2.1.0","71440","67eb09d69af29d8b61649c0d","Prolific","1","","null","","7","1","","null","313","399","313","86","e","false","4.45","","","","","",""
"","","","","","","","","","","","Stimulus Response","51","2.1.0","71954","67eb09d69af29d8b61649c0d","Prolific","1","","513","","7","1","","w","","","","","","","","0","","","","",""
"","","","","","","","","","","","Feedback","52","2.1.0","72468","67eb09d69af29d8b61649c0d","Prolific","1","","null","","7","1","","null","","","","","","","","","","","","",""
"","","","","","","","","","","","Summary Trial","54","2.1.0","72469","67eb09d69af29d8b61649c0d","Prolific","1","","513","","7","1","","w","313","399","","","","false","4.45","0","","Practice","86","",""
"","","","","","","","","","","","html-keyboard-response","56","2.1.0","73475","67eb09d69af29d8b61649c0d","Prolific","1","","null","","8","1","<p style=""font-size: 70pt;"">+</p>","null","","","","","","","","","","","","",""
"","","","","","","","","","","","Stimulus Presentation","57","2.1.0","73794","67eb09d69af29d8b61649c0d","Prolific","1","","null","","8","1","","null","418","313","313","105","w","true","4.65","","","","","",""
"","","","","","","","","","","","Stimulus Response","58","2.1.0","74028","67eb09d69af29d8b61649c0d","Prolific","1","","232","","8","1","","w","","","","","","","","1","","","","",""
"","","","","","","","","","","","Feedback","59","2.1.0","74550","67eb09d69af29d8b61649c0d","Prolific","1","","null","","8","1","","null","","","","","","","","","","","","",""
"","","","","","","","","","","","Summary Trial","61","2.1.0","74551","67eb09d69af29d8b61649c0d","Prolific","1","","232","","8","1","","w","418","313","","","","true","4.65","1","","Practice","105","",""
"","","","","","","","","","","","html-keyboard-response","63","2.1.0","75553","67eb09d69af29d8b61649c0d","Prolific","1","","null","","9","1","<p style=""font-size: 70pt;"">+</p>","null","","","","","","","","","","","","",""
"","","","","","","","","","","","Stimulus Presentation","64","2.1.0","75856","67eb09d69af29d8b61649c0d","Prolific","1","","null","","9","1","","null","418","313","313","105","w","true","4.65","","","","","",""
"","","","","","","","","","","","Stimulus Response","65","2.1.0","76005","67eb09d69af29d8b61649c0d","Prolific","1","","148","","9","1","","w","","","","","","","","1","","","","",""
"","","","","","","","","","","","Feedback","66","2.1.0","76510","67eb09d69af29d8b61649c0d","Prolific","1","","null","","9","1","","null","","","","","","","","","","","","",""
"","","","","","","","","","","","Summary Trial","68","2.1.0","76510","67eb09d69af29d8b61649c0d","Prolific","1","","148","","9","1","","w","418","313","","","","true","4.65","1","","Practice","105","",""
"","","","","","","","","","","","html-keyboard-response","70","2.1.0","77523","67eb09d69af29d8b61649c0d","Prolific","1","","null","","10","1","<p style=""font-size: 70pt;"">+</p>","null","","","","","","","","","","","","",""
"","","","","","","","","","","","Stimulus Presentation","71","2.1.0","77835","67eb09d69af29d8b61649c0d","Prolific","1","","null","","10","1","","null","313","399","313","86","e","false","4.45","","","","","",""
"","","","","","","","","","","","Stimulus Response","72","2.1.0","78312","67eb09d69af29d8b61649c0d","Prolific","1","","476","","10","1","","e","","","","","","","","1","","","","",""
"","","","","","","","","","","","Feedback","73","2.1.0","78826","67eb09d69af29d8b61649c0d","Prolific","1","","null","","10","1","","null","","","","","","","","","","","","",""
"","","","","","","","","","","","Summary Trial","75","2.1.0","78826","67eb09d69af29d8b61649c0d","Prolific","1","","476","","10","1","","e","313","399","","","","false","4.45","1","","Practice","86","",""
"","","","","","","","","","","","html-keyboard-response","77","2.1.0","79831","67eb09d69af29d8b61649c0d","Prolific","1","","null","","11","1","<p style=""font-size: 70pt;"">+</p>","null","","","","","","","","","","","","",""
"","","","","","","","","","","","Stimulus Presentation","78","2.1.0","80139","67eb09d69af29d8b61649c0d","Prolific","1","","null","","11","1","","null","313","399","313","86","e","false","4.45","","","","","",""
"","","","","","","","","","","","Stimulus Response","79","2.1.0","80788","67eb09d69af29d8b61649c0d","Prolific","1","","647","","11","1","","e","","","","","","","","1","","","","",""
"","","","","","","","","","","","Feedback","80","2.1.0","81298","67eb09d69af29d8b61649c0d","Prolific","1","","null","","11","1","","null","","","","","","","","","","","","",""
"","","","","","","","","","","","Summary Trial","82","2.1.0","81298","67eb09d69af29d8b61649c0d","Prolific","1","","647","","11","1","","e","313","399","","","","false","4.45","1","","Practice","86","",""
"","","","","","","","","","","","html-keyboard-response","84","2.1.0","82315","67eb09d69af29d8b61649c0d","Prolific","1","","null","","12","1","<p style=""font-size: 70pt;"">+</p>","null","","","","","","","","","","","","",""
"","","","","","","","","","","","Stimulus Presentation","85","2.1.0","82645","67eb09d69af29d8b61649c0d","Prolific","1","","null","","12","1","","null","390","313","313","77","w","true","4.3500000000000005","","","","","",""
"","","","","","","","","","","","Stimulus Response","86","2.1.0","82801","67eb09d69af29d8b61649c0d","Prolific","1","","154","","12","1","","w","","","","","","","","1","","","","",""
"","","","","","","","","","","","Feedback","87","2.1.0","83309","67eb09d69af29d8b61649c0d","Prolific","1","","null","","12","1","","null","","","","","","","","","","","","",""
"","","","","","","","","","","","Summary Trial","89","2.1.0","83309","67eb09d69af29d8b61649c0d","Prolific","1","","154","","12","1","","w","390","313","","","","true","4.3500000000000005","1","","Practice","77","",""
"","","","","","","","","","","","html-keyboard-response","91","2.1.0","84314","67eb09d69af29d8b61649c0d","Prolific","1","","null","","13","1","<p style=""font-size: 70pt;"">+</p>","null","","","","","","","","","","","","",""
"","","","","","","","","","","","Stimulus Presentation","92","2.1.0","84622","67eb09d69af29d8b61649c0d","Prolific","1","","null","","13","1","","null","390","313","313","77","w","true","4.3500000000000005","","","","","",""
"","","","","","","","","","","","Stimulus Response","93","2.1.0","84944","67eb09d69af29d8b61649c0d","Prolific","1","","320","","13","1","","w","","","","","","","","1","","","","",""
"","","","","","","","","","","","Feedback","94","2.1.0","85455","67eb09d69af29d8b61649c0d","Prolific","1","","null","","13","1","","null","","","","","","","","","","","","",""
"","","","","","","","","","","","Summary Trial","96","2.1.0","85456","67eb09d69af29d8b61649c0d","Prolific","1","","320","","13","1","","w","390","313","","","","true","4.3500000000000005","1","","Practice","77","",""
"","","","","","","","","","","","html-keyboard-response","98","2.1.0","86460","67eb09d69af29d8b61649c0d","Prolific","1","","null","","14","1","<p style=""font-size: 70pt;"">+</p>","null","","","","","","","","","","","","",""
"","","","","","","","","","","","Stimulus Presentation","99","2.1.0","86773","67eb09d69af29d8b61649c0d","Prolific","1","","null","","14","1","","null","313","383","313","70","e","false","4.250000000000001","","","","","",""
"","","","","","","","","","","","Stimulus Response","100","2.1.0","86991","67eb09d69af29d8b61649c0d","Prolific","1","","217","","14","1","","e","","","","","","","","1","","","","",""
"","","","","","","","","","","","Feedback","101","2.1.0","87505","67eb09d69af29d8b61649c0d","Prolific","1","","null","","14","1","","null","","","","","","","","","","","","",""
"","","","","","","","","","","","Summary Trial","103","2.1.0","87505","67eb09d69af29d8b61649c0d","Prolific","1","","217","","14","1","","e","313","383","","","","false","4.250000000000001","1","","Practice","70","",""
"","","","","","","","","","","","html-keyboard-response","105","2.1.0","88521","67eb09d69af29d8b61649c0d","Prolific","1","","null","","15","1","<p style=""font-size: 70pt;"">+</p>","null","","","","","","","","","","","","",""
"","","","","","","","","","","","Stimulus Presentation","106","2.1.0","88835","67eb09d69af29d8b61649c0d","Prolific","1","","null","","15","1","","null","383","313","313","70","w","true","4.250000000000001","","","","","",""
"","","","","","","","","","","","Stimulus Response","107","2.1.0","89065","67eb09d69af29d8b61649c0d","Prolific","1","","228","","15","1","","w","","","","","","","","1","","","","",""
"","","","","","","","","","","","Feedback","108","2.1.0","89571","67eb09d69af29d8b61649c0d","Prolific","1","","null","","15","1","","null","","","","","","","","","","","","",""
"","","","","","","","","","","","Summary Trial","110","2.1.0","89572","67eb09d69af29d8b61649c0d","Prolific","1","","228","","15","1","","w","383","313","","","","true","4.250000000000001","1","","Practice","70","",""
"","","","","","","","","","","","html-keyboard-response","112","2.1.0","90583","67eb09d69af29d8b61649c0d","Prolific","1","","null","","16","1","<p style=""font-size: 70pt;"">+</p>","null","","","","","","","","","","","","",""
"","","","","","","","","","","","Stimulus Presentation","113","2.1.0","90897","67eb09d69af29d8b61649c0d","Prolific","1","","null","","16","1","","null","313","376","313","63","e","false","4.150000000000001","","","","","",""
"","","","","","","","","","","","Stimulus Response","114","2.1.0","91093","67eb09d69af29d8b61649c0d","Prolific","1","","195","","16","1","","e","","","","","","","","1","","","","",""
"","","","","","","","","","","","Feedback","115","2.1.0","91606","67eb09d69af29d8b61649c0d","Prolific","1","","null","","16","1","","null","","","","","","","","","","","","",""
"","","","","","","","","","","","Summary Trial","117","2.1.0","91606","67eb09d69af29d8b61649c0d","Prolific","1","","195","","16","1","","e","313","376","","","","false","4.150000000000001","1","","Practice","63","",""
"","","","","","","","","","","","html-keyboard-response","119","2.1.0","92615","67eb09d69af29d8b61649c0d","Prolific","1","","null","","17","1","<p style=""font-size: 70pt;"">+</p>","null","","","","","","","","","","","","",""
"","","","","","","","","","","","Stimulus Presentation","120","2.1.0","92932","67eb09d69af29d8b61649c0d","Prolific","1","","null","","17","1","","null","313","376","313","63","e","false","4.150000000000001","","","","","",""
"","","","","","","","","","","","Stimulus Response","121","2.1.0","93416","67eb09d69af29d8b61649c0d","Prolific","1","","482","","17","1","","w","","","","","","","","0","","","","",""
"","","","","","","","","","","","Feedback","122","2.1.0","93921","67eb09d69af29d8b61649c0d","Prolific","1","","null","","17","1","","null","","","","","","","","","","","","",""
"","","","","","","","","","","","Summary Trial","124","2.1.0","93922","67eb09d69af29d8b61649c0d","Prolific","1","","482","","17","1","","w","313","376","","","","false","4.150000000000001","0","","Practice","63","",""
"","","","","","","","","","","","html-keyboard-response","126","2.1.0","94927","67eb09d69af29d8b61649c0d","Prolific","1","","null","","18","1","<p style=""font-size: 70pt;"">+</p>","null","","","","","","","","","","","","",""
"","","","","","","","","","","","Stimulus Presentation","127","2.1.0","95233","67eb09d69af29d8b61649c0d","Prolific","1","","null","","18","1","","null","383","313","313","70","w","true","4.250000000000001","","","","","",""
"","","","","","","","","","","","Stimulus Response","128","2.1.0","95364","67eb09d69af29d8b61649c0d","Prolific","1","","131","","18","1","","w","","","","","","","","1","","","","",""
"","","","","","","","","","","","Feedback","129","2.1.0","95872","67eb09d69af29d8b61649c0d","Prolific","1","","null","","18","1","","null","","","","","","","","","","","","",""
"","","","","","","","","","","","Summary Trial","131","2.1.0","95872","67eb09d69af29d8b61649c0d","Prolific","1","","131","","18","1","","w","383","313","","","","true","4.250000000000001","1","","Practice","70","",""
"","","","","","","","","","","","html-keyboard-response","133","2.1.0","96877","67eb09d69af29d8b61649c0d","Prolific","1","","null","","19","1","<p style=""font-size: 70pt;"">+</p>","null","","","","","","","","","","","","",""
"","","","","","","","","","","","Stimulus Presentation","134","2.1.0","97188","67eb09d69af29d8b61649c0d","Prolific","1","","null","","19","1","","null","313","383","313","70","e","false","4.250000000000001","","","","","",""
"","","","","","","","","","","","Stimulus Response","135","2.1.0","97479","67eb09d69af29d8b61649c0d","Prolific","1","","289","","19","1","","e","","","","","","","","1","","","","",""
"","","","","","","","","","","","Feedback","136","2.1.0","97988","67eb09d69af29d8b61649c0d","Prolific","1","","null","","19","1","","null","","","","","","","","","","","","",""
"","","","","","","","","","","","Summary Trial","138","2.1.0","97989","67eb09d69af29d8b61649c0d","Prolific","1","","289","","19","1","","e","313","383","","","","false","4.250000000000001","1","","Practice","70","",""
"","","","","","","","","","","","html-keyboard-response","140","2.1.0","98996","67eb09d69af29d8b61649c0d","Prolific","1","","null","","20","1","<p style=""font-size: 70pt;"">+</p>","null","","","","","","","","","","","","",""
"","","","","","","","","","","","Stimulus Presentation","141","2.1.0","99298","67eb09d69af29d8b61649c0d","Prolific","1","","null","","20","1","","null","376","313","313","63","w","true","4.150000000000001","","","","","",""
"","","","","","","","","","","","Stimulus Response","142","2.1.0","99511","67eb09d69af29d8b61649c0d","Prolific","1","","211","","20","1","","e","","","","","","","","0","","","","",""
"","","","","","","","","","","","Feedback","143","2.1.0","100020","67eb09d69af29d8b61649c0d","Prolific","1","","null","","20","1","","null","","","","","","","","","","","","",""
"","","","","","","","","","","","Summary Trial","145","2.1.0","100020","67eb09d69af29d8b61649c0d","Prolific","1","","211","","20","1","","e","376","313","","","","true","4.150000000000001","0","","Practice","63","",""
"","","","","","","","","","","","html-keyboard-response","147","2.1.0","101030","67eb09d69af29d8b61649c0d","Prolific","1","","null","","21","1","<p style=""font-size: 70pt;"">+</p>","null","","","","","","","","","","","","",""
"","","","","","","","","","","","Stimulus Presentation","148","2.1.0","101347","67eb09d69af29d8b61649c0d","Prolific","1","","null","","21","1","","null","313","383","313","70","e","false","4.250000000000001","","","","","",""
"","","","","","","","","","","","Stimulus Response","149","2.1.0","101714","67eb09d69af29d8b61649c0d","Prolific","1","","366","","21","1","","e","","","","","","","","1","","","","",""
"","","","","","","","","","","","Feedback","150","2.1.0","102219","67eb09d69af29d8b61649c0d","Prolific","1","","null","","21","1","","null","","","","","","","","","","","","",""
"","","","","","","","","","","","Summary Trial","152","2.1.0","102220","67eb09d69af29d8b61649c0d","Prolific","1","","366","","21","1","","e","313","383","","","","false","4.250000000000001","1","","Practice","70","",""
"","","","","","","","","","","","html-keyboard-response","154","2.1.0","103229","67eb09d69af29d8b61649c0d","Prolific","1","","null","","22","1","<p style=""font-size: 70pt;"">+</p>","null","","","","","","","","","","","","",""
"","","","","","","","","","","","Stimulus Presentation","155","2.1.0","103545","67eb09d69af29d8b61649c0d","Prolific","1","","null","","22","1","","null","383","313","313","70","w","true","4.250000000000001","","","","","",""
"","","","","","","","","","","","Stimulus Response","156","2.1.0","103778","67eb09d69af29d8b61649c0d","Prolific","1","","232","","22","1","","w","","","","","","","","1","","","","",""
"","","","","","","","","","","","Feedback","157","2.1.0","104292","67eb09d69af29d8b61649c0d","Prolific","1","","null","","22","1","","null","","","","","","","","","","","","",""
"","","","","","","","","","","","Summary Trial","159","2.1.0","104293","67eb09d69af29d8b61649c0d","Prolific","1","","232","","22","1","","w","383","313","","","","true","4.250000000000001","1","","Practice","70","",""
"","","","","","","","","","","","html-keyboard-response","161","2.1.0","105309","67eb09d69af29d8b61649c0d","Prolific","1","","null","","23","1","<p style=""font-size: 70pt;"">+</p>","null","","","","","","","","","","","","",""
"","","","","","","","","","","","Stimulus Presentation","162","2.1.0","105615","67eb09d69af29d8b61649c0d","Prolific","1","","null","","23","1","","null","376","313","313","63","w","true","4.150000000000001","","","","","",""
"","","","","","","","","","","","Stimulus Response","163","2.1.0","106120","67eb09d69af29d8b61649c0d","Prolific","1","","505","","23","1","","w","","","","","","","","1","","","","",""
"","","","","","","","","","","","Feedback","164","2.1.0","106636","67eb09d69af29d8b61649c0d","Prolific","1","","null","","23","1","","null","","","","","","","","","","","","",""
"","","","","","","","","","","","Summary Trial","166","2.1.0","106637","67eb09d69af29d8b61649c0d","Prolific","1","","505","","23","1","","w","376","313","","","","true","4.150000000000001","1","","Practice","63","",""
"","","","","","","","","","","","html-keyboard-response","168","2.1.0","107649","67eb09d69af29d8b61649c0d","Prolific","1","","null","","24","1","<p style=""font-size: 70pt;"">+</p>","null","","","","","","","","","","","","",""
"","","","","","","","","","","","Stimulus Presentation","169","2.1.0","107960","67eb09d69af29d8b61649c0d","Prolific","1","","null","","24","1","","null","313","376","313","63","e","false","4.150000000000001","","","","","",""
"","","","","","","","","","","","Stimulus Response","170","2.1.0","108348","67eb09d69af29d8b61649c0d","Prolific","1","","387","","24","1","","e","","","","","","","","1","","","","",""
"","","","","","","","","","","","Feedback","171","2.1.0","108849","67eb09d69af29d8b61649c0d","Prolific","1","","null","","24","1","","null","","","","","","","","","","","","",""
"","","","","","","","","","","","Summary Trial","173","2.1.0","108849","67eb09d69af29d8b61649c0d","Prolific","1","","387","","24","1","","e","313","376","","","","false","4.150000000000001","1","","Practice","63","",""
"","","","","","","","","","","","html-keyboard-response","175","2.1.0","109857","67eb09d69af29d8b61649c0d","Prolific","1","","null","","25","1","<p style=""font-size: 70pt;"">+</p>","null","","","","","","","","","","","","",""
"","","","","","","","","","","","Stimulus Presentation","176","2.1.0","110172","67eb09d69af29d8b61649c0d","Prolific","1","","null","","25","1","","null","370","313","313","57","w","true","4.050000000000002","","","","","",""
"","","","","","","","","","","","Stimulus Response","177","2.1.0","110483","67eb09d69af29d8b61649c0d","Prolific","1","","310","","25","1","","w","","","","","","","","1","","","","",""
"","","","","","","","","","","","Feedback","178","2.1.0","110999","67eb09d69af29d8b61649c0d","Prolific","1","","null","","25","1","","null","","","","","","","","","","","","",""
"","","","","","","","","","","","Summary Trial","180","2.1.0","111000","67eb09d69af29d8b61649c0d","Prolific","1","","310","","25","1","","w","370","313","","","","true","4.050000000000002","1","","Practice","57","",""
"","","","","","","","","","","","html-keyboard-response","182","2.1.0","112011","67eb09d69af29d8b61649c0d","Prolific","1","","null","","26","1","<p style=""font-size: 70pt;"">+</p>","null","","","","","","","","","","","","",""
"","","","","","","","","","","","Stimulus Presentation","183","2.1.0","112313","67eb09d69af29d8b61649c0d","Prolific","1","","null","","26","1","","null","313","370","313","57","e","false","4.050000000000002","","","","","",""
"","","","","","","","","","","","Stimulus Response","184","2.1.0","112518","67eb09d69af29d8b61649c0d","Prolific","1","","204","","26","1","","e","","","","","","","","1","","","","",""
"","","","","","","","","","","","Feedback","185","2.1.0","113032","67eb09d69af29d8b61649c0d","Prolific","1","","null","","26","1","","null","","","","","","","","","","","","",""
"","","","","","","","","","","","Summary Trial","187","2.1.0","113032","67eb09d69af29d8b61649c0d","Prolific","1","","204","","26","1","","e","313","370","","","","false","4.050000000000002","1","","Practice","57","",""
"","","","","","","","","","","","instructions","188","2.1.0","130703","67eb09d69af29d8b61649c0d","Prolific","1","","17670","[{""page_index"":0,""viewing_time"":17670}]","","","","","","","","","","","","","","","","",""
"","","","","","","","","","","","Confidence Rating","189","2.1.0","136215","67eb09d69af29d8b61649c0d","Prolific","1","","5508","","","","A rating scale as shown below is used throughout the task. 
        You will select any point with your mouse.<br>Choose any point on the 
          scale and click &apos;Submit&apos; to continue.<br><br>
            <div id=""conf1"" class=""conf"" style=""height:25px; width:154px; margin-top:2px; margin-left:15px;""></div>
            <div id=""conf2"" class=""conf"" style=""height:25px; width:154px; margin-top:2px; margin-left:169px;""></div>
            <div id=""conf3"" class=""conf"" style=""height:25px; width:154px; margin-top:2px; margin-left:323px;""></div>
            <div id=""conf4"" class=""conf"" style=""height:25px; width:154px; margin-top:2px; margin-left:477px;""></div>
     <div id=""conf5"" class=""conf"" style=""height:25px; width:154px; margin-top:2px; margin-left:631px;""></div>","6","","","","","","","","","","","","50",""
"","","","","","","","","","","","Confidence Rating","190","2.1.0","142840","67eb09d69af29d8b61649c0d","Prolific","1","","6624","","","","During the task, if you are <strong>very sure</strong> that you made the correct judgement, you should respond <strong>&apos;Certain&apos;</strong><br><br>
            <div id=""conf1"" class=""conf"" style=""height:25px; width:154px; margin-top:2px; margin-left:15px;""></div>
            <div id=""conf2"" class=""conf"" style=""height:25px; width:154px; margin-top:2px; margin-left:169px;""></div>
            <div id=""conf3"" class=""conf"" style=""height:25px; width:154px; margin-top:2px; margin-left:323px;""></div>
            <div id=""conf4"" class=""conf"" style=""height:25px; width:154px; margin-top:2px; margin-left:477px;""></div>
   <div id=""conf5"" class=""conf"" style=""height:25px; width:154px; margin-top:2px; margin-left:631px;""></div>","6","","","","","","","","","","","","50",""
"","","","","","","","","","","","Confidence Rating","191","2.1.0","155773","67eb09d69af29d8b61649c0d","Prolific","1","","12931","","","","If you are <strong>very unsure</strong> you made the correct judgement, you should respond <strong>&apos;Guessing&apos;</strong><br><br>
            <div id=""conf1"" class=""conf"" style=""height:25px; width:154px; margin-top:2px; margin-left:15px;""></div>
            <div id=""conf2"" class=""conf"" style=""height:25px; width:154px; margin-top:2px; margin-left:169px;""></div>
            <div id=""conf3"" class=""conf"" style=""height:25px; width:154px; margin-top:2px; margin-left:323px;""></div>
            <div id=""conf4"" class=""conf"" style=""height:25px; width:154px; margin-top:2px; margin-left:477px;""></div>
 <div id=""conf5"" class=""conf"" style=""height:25px; width:154px; margin-top:2px; margin-left:631px;""></div>","1","","","","","","","","","","","","1",""
"","","","","","","","","","","","Confidence Rating","192","2.1.0","159434","67eb09d69af29d8b61649c0d","Prolific","1","","3660","","","","If you are <strong>somewhat sure</strong> about being correct, you should select a rating between the two descriptions.<br><br>
            <div id=""conf1"" class=""conf"" style=""height:25px; width:154px; margin-top:2px; margin-left:15px;""></div>
            <div id=""conf2"" class=""conf"" style=""height:25px; width:154px; margin-top:2px; margin-left:169px;""></div>
            <div id=""conf3"" class=""conf"" style=""height:25px; width:154px; margin-top:2px; margin-left:323px;""></div>
            <div id=""conf4"" class=""conf"" style=""height:25px; width:154px; margin-top:2px; margin-left:477px;""></div>
 <div id=""conf5"" class=""conf"" style=""height:25px; width:154px; margin-top:2px; margin-left:631px;""></div>","4","","","","","","","","","","","","4",""
"","","","","","","","","","","","Confidence Rating","193","2.1.0","166137","67eb09d69af29d8b61649c0d","Prolific","1","","6701","","","","If you understand how to use and take advantage of the whole rating scale, choose any point on the rating scale and click &apos;Submit&apos; to continue.<br><br>
            <div id=""conf1"" class=""conf"" style=""height:25px; width:154px; margin-top:2px; margin-left:15px;""></div>
            <div id=""conf2"" class=""conf"" style=""height:25px; width:154px; margin-top:2px; margin-left:169px;""></div>
            <div id=""conf3"" class=""conf"" style=""height:25px; width:154px; margin-top:2px; margin-left:323px;""></div>
            <div id=""conf4"" class=""conf"" style=""height:25px; width:154px; margin-top:2px; margin-left:477px;""></div>
 <div id=""conf5"" class=""conf"" style=""height:25px; width:154px; margin-top:2px; margin-left:631px;""></div>","6","","","","","","","","","","","","50",""
"","","","","","","","","","","","instructions","194","2.1.0","169197","67eb09d69af29d8b61649c0d","Prolific","1","","3059","[{""page_index"":0,""viewing_time"":3059}]","","","","","","","","","","","","","","","","",""
"","","","","","","","","","","","instructions","195","2.1.0","172271","67eb09d69af29d8b61649c0d","Prolific","1","","3074","[{""page_index"":0,""viewing_time"":3074}]","","","","","","","","","","","","","","","","",""
"","","","","","","","","","","","html-keyboard-response","197","2.1.0","173277","67eb09d69af29d8b61649c0d","Prolific","1","","null","","27","2","<p style=""font-size: 70pt;"">+</p>","null","","","","","","","","","","","","",""
"","","","","","","","","","","","Stimulus Presentation","198","2.1.0","173598","67eb09d69af29d8b61649c0d","Prolific","1","","null","","27","2","","null","313","365","313","52","e","false","3.9500000000000015","","","","","",""
"","","","","","","","","","","","Stimulus Response","199","2.1.0","174021","67eb09d69af29d8b61649c0d","Prolific","1","","422","","27","2","","w","","","","","","","","0","","","","",""
"","","","","","","","","","","","Feedback","200","2.1.0","174536","67eb09d69af29d8b61649c0d","Prolific","1","","null","","27","2","","null","","","","","","","","","","","","",""
"","","","","","","","","","","","Confidence Rating","201","2.1.0","179487","67eb09d69af29d8b61649c0d","Prolific","1","","4949","","27","2","<h3>Rate your confidence:</h3>
            <div id=""conf1"" class=""conf"" style=""height:25px; width:154px; margin-top:2px; margin-left:15px;""></div>
            <div id=""conf2"" class=""conf"" style=""height:25px; width:154px; margin-top:2px; margin-left:169px;""></div>
            <div id=""conf3"" class=""conf"" style=""height:25px; width:154px; margin-top:2px; margin-left:323px;""></div>
            <div id=""conf4"" class=""conf"" style=""height:25px; width:154px; margin-top:2px; margin-left:477px;""></div>
          <div id=""conf5"" class=""conf"" style=""height:25px; width:154px; margin-top:2px; margin-left:631px;""></div>","6","","","","","","","","","","","","50",""
"","","","","","","","","","","","Summary Trial","202","2.1.0","179487","67eb09d69af29d8b61649c0d","Prolific","1","","422","","27","2","","w","313","365","","","","false","3.9500000000000015","0","","Test","52","","6"
"","","","","","","","","","","","html-keyboard-response","204","2.1.0","180489","67eb09d69af29d8b61649c0d","Prolific","1","","null","","28","2","<p style=""font-size: 70pt;"">+</p>","null","","","","","","","","","","","","",""
"","","","","","","","","","","","Stimulus Presentation","205","2.1.0","180792","67eb09d69af29d8b61649c0d","Prolific","1","","null","","28","2","","null","370","313","313","57","w","true","4.050000000000002","","","","","",""
"","","","","","","","","","","","Stimulus Response","206","2.1.0","181062","67eb09d69af29d8b61649c0d","Prolific","1","","269","","28","2","","w","","","","","","","","1","","","","",""
"","","","","","","","","","","","Feedback","207","2.1.0","181580","67eb09d69af29d8b61649c0d","Prolific","1","","null","","28","2","","null","","","","","","","","","","","","",""
"","","","","","","","","","","","Confidence Rating","208","2.1.0","187369","67eb09d69af29d8b61649c0d","Prolific","1","","5788","","28","2","<h3>Rate your confidence:</h3>
            <div id=""conf1"" class=""conf"" style=""height:25px; width:154px; margin-top:2px; margin-left:15px;""></div>
            <div id=""conf2"" class=""conf"" style=""height:25px; width:154px; margin-top:2px; margin-left:169px;""></div>
            <div id=""conf3"" class=""conf"" style=""height:25px; width:154px; margin-top:2px; margin-left:323px;""></div>
            <div id=""conf4"" class=""conf"" style=""height:25px; width:154px; margin-top:2px; margin-left:477px;""></div>
          <div id=""conf5"" class=""conf"" style=""height:25px; width:154px; margin-top:2px; margin-left:631px;""></div>","6","","","","","","","","","","","","50",""
"","","","","","","","","","","","Summary Trial","209","2.1.0","187370","67eb09d69af29d8b61649c0d","Prolific","1","","269","","28","2","","w","370","313","","","","true","4.050000000000002","1","","Test","57","","6"
"","","","","","","","","","","","html-keyboard-response","211","2.1.0","188387","67eb09d69af29d8b61649c0d","Prolific","1","","null","","29","2","<p style=""font-size: 70pt;"">+</p>","null","","","","","","","","","","","","",""
"","","","","","","","","","","","Stimulus Presentation","212","2.1.0","188689","67eb09d69af29d8b61649c0d","Prolific","1","","null","","29","2","","null","370","313","313","57","w","true","4.050000000000002","","","","","",""
"","","","","","","","","","","","Stimulus Response","213","2.1.0","189115","67eb09d69af29d8b61649c0d","Prolific","1","","425","","29","2","","w","","","","","","","","1","","","","",""
"","","","","","","","","","","","Feedback","214","2.1.0","189628","67eb09d69af29d8b61649c0d","Prolific","1","","null","","29","2","","null","","","","","","","","","","","","",""
"","","","","","","","","","","","Confidence Rating","215","2.1.0","193611","67eb09d69af29d8b61649c0d","Prolific","1","","3981","","29","2","<h3>Rate your confidence:</h3>
            <div id=""conf1"" class=""conf"" style=""height:25px; width:154px; margin-top:2px; margin-left:15px;""></div>
            <div id=""conf2"" class=""conf"" style=""height:25px; width:154px; margin-top:2px; margin-left:169px;""></div>
            <div id=""conf3"" class=""conf"" style=""height:25px; width:154px; margin-top:2px; margin-left:323px;""></div>
            <div id=""conf4"" class=""conf"" style=""height:25px; width:154px; margin-top:2px; margin-left:477px;""></div>
          <div id=""conf5"" class=""conf"" style=""height:25px; width:154px; margin-top:2px; margin-left:631px;""></div>","6","","","","","","","","","","","","50",""
"","","","","","","","","","","","Summary Trial","216","2.1.0","193612","67eb09d69af29d8b61649c0d","Prolific","1","","425","","29","2","","w","370","313","","","","true","4.050000000000002","1","","Test","57","","6"
"","","","","","","","","","","","html-keyboard-response","218","2.1.0","194616","67eb09d69af29d8b61649c0d","Prolific","1","","null","","30","2","<p style=""font-size: 70pt;"">+</p>","null","","","","","","","","","","","","",""
"","","","","","","","","","","","Stimulus Presentation","219","2.1.0","194925","67eb09d69af29d8b61649c0d","Prolific","1","","null","","30","2","","null","313","365","313","52","e","false","3.9500000000000015","","","","","",""
"","","","","","","","","","","","Stimulus Response","220","2.1.0","195489","67eb09d69af29d8b61649c0d","Prolific","1","","563","","30","2","","e","","","","","","","","1","","","","",""
"","","","","","","","","","","","Feedback","221","2.1.0","195993","67eb09d69af29d8b61649c0d","Prolific","1","","null","","30","2","","null","","","","","","","","","","","","",""
"","","","","","","","","","","","Confidence Rating","222","2.1.0","198580","67eb09d69af29d8b61649c0d","Prolific","1","","2586","","30","2","<h3>Rate your confidence:</h3>
            <div id=""conf1"" class=""conf"" style=""height:25px; width:154px; margin-top:2px; margin-left:15px;""></div>
            <div id=""conf2"" class=""conf"" style=""height:25px; width:154px; margin-top:2px; margin-left:169px;""></div>
            <div id=""conf3"" class=""conf"" style=""height:25px; width:154px; margin-top:2px; margin-left:323px;""></div>
            <div id=""conf4"" class=""conf"" style=""height:25px; width:154px; margin-top:2px; margin-left:477px;""></div>
          <div id=""conf5"" class=""conf"" style=""height:25px; width:154px; margin-top:2px; margin-left:631px;""></div>","6","","","","","","","","","","","","50",""
"","","","","","","","","","","","Summary Trial","223","2.1.0","198580","67eb09d69af29d8b61649c0d","Prolific","1","","563","","30","2","","e","313","365","","","","false","3.9500000000000015","1","","Test","52","","6"
"","","","","","","","","","","","html-keyboard-response","225","2.1.0","199593","67eb09d69af29d8b61649c0d","Prolific","1","","null","","31","2","<p style=""font-size: 70pt;"">+</p>","null","","","","","","","","","","","","",""
"","","","","","","","","","","","Stimulus Presentation","226","2.1.0","199901","67eb09d69af29d8b61649c0d","Prolific","1","","null","","31","2","","null","365","313","313","52","w","true","3.9500000000000015","","","","","",""
"","","","","","","","","","","","Stimulus Response","227","2.1.0","199920","67eb09d69af29d8b61649c0d","Prolific","1","","19","","31","2","","w","","","","","","","","1","","","","",""
"","","","","","","","","","","","Feedback","228","2.1.0","200429","67eb09d69af29d8b61649c0d","Prolific","1","","null","","31","2","","null","","","","","","","","","","","","",""
"","","","","","","","","","","","Confidence Rating","229","2.1.0","202723","67eb09d69af29d8b61649c0d","Prolific","1","","2293","","31","2","<h3>Rate your confidence:</h3>
            <div id=""conf1"" class=""conf"" style=""height:25px; width:154px; margin-top:2px; margin-left:15px;""></div>
            <div id=""conf2"" class=""conf"" style=""height:25px; width:154px; margin-top:2px; margin-left:169px;""></div>
            <div id=""conf3"" class=""conf"" style=""height:25px; width:154px; margin-top:2px; margin-left:323px;""></div>
            <div id=""conf4"" class=""conf"" style=""height:25px; width:154px; margin-top:2px; margin-left:477px;""></div>
          <div id=""conf5"" class=""conf"" style=""height:25px; width:154px; margin-top:2px; margin-left:631px;""></div>","5","","","","","","","","","","","","50",""
"","","","","","","","","","","","Summary Trial","230","2.1.0","202723","67eb09d69af29d8b61649c0d","Prolific","1","","19","","31","2","","w","365","313","","","","true","3.9500000000000015","1","","Test","52","","5"
"","","","","","","","","","","","html-keyboard-response","232","2.1.0","203733","67eb09d69af29d8b61649c0d","Prolific","1","","null","","32","2","<p style=""font-size: 70pt;"">+</p>","null","","","","","","","","","","","","",""
"","","","","","","","","","","","Stimulus Presentation","233","2.1.0","204036","67eb09d69af29d8b61649c0d","Prolific","1","","null","","32","2","","null","313","360","313","47","e","false","3.8500000000000014","","","","","",""
"","","","","","","","","","","","Stimulus Response","234","2.1.0","204276","67eb09d69af29d8b61649c0d","Prolific","1","","239","","32","2","","e","","","","","","","","1","","","","",""
"","","","","","","","","","","","Feedback","235","2.1.0","204780","67eb09d69af29d8b61649c0d","Prolific","1","","null","","32","2","","null","","","","","","","","","","","","",""
"","","","","","","","","","","","Confidence Rating","236","2.1.0","206879","67eb09d69af29d8b61649c0d","Prolific","1","","2097","","32","2","<h3>Rate your confidence:</h3>
            <div id=""conf1"" class=""conf"" style=""height:25px; width:154px; margin-top:2px; margin-left:15px;""></div>
            <div id=""conf2"" class=""conf"" style=""height:25px; width:154px; margin-top:2px; margin-left:169px;""></div>
            <div id=""conf3"" class=""conf"" style=""height:25px; width:154px; margin-top:2px; margin-left:323px;""></div>
            <div id=""conf4"" class=""conf"" style=""height:25px; width:154px; margin-top:2px; margin-left:477px;""></div>
          <div id=""conf5"" class=""conf"" style=""height:25px; width:154px; margin-top:2px; margin-left:631px;""></div>","5","","","","","","","","","","","","50",""
"","","","","","","","","","","","Summary Trial","237","2.1.0","206879","67eb09d69af29d8b61649c0d","Prolific","1","","239","","32","2","","e","313","360","","","","false","3.8500000000000014","1","","Test","47","","5"
"","","","","","","","","","","","html-keyboard-response","239","2.1.0","207891","67eb09d69af29d8b61649c0d","Prolific","1","","null","","33","2","<p style=""font-size: 70pt;"">+</p>","null","","","","","","","","","","","","",""
"","","","","","","","","","","","Stimulus Presentation","240","2.1.0","208199","67eb09d69af29d8b61649c0d","Prolific","1","","null","","33","2","","null","360","313","313","47","w","true","3.8500000000000014","","","","","",""
"","","","","","","","","","","","Stimulus Response","241","2.1.0","208467","67eb09d69af29d8b61649c0d","Prolific","1","","266","","33","2","","e","","","","","","","","0","","","","",""
"","","","","","","","","","","","Feedback","242","2.1.0","208981","67eb09d69af29d8b61649c0d","Prolific","1","","null","","33","2","","null","","","","","","","","","","","","",""
"","","","","","","","","","","","Confidence Rating","243","2.1.0","210986","67eb09d69af29d8b61649c0d","Prolific","1","","2002","","33","2","<h3>Rate your confidence:</h3>
            <div id=""conf1"" class=""conf"" style=""height:25px; width:154px; margin-top:2px; margin-left:15px;""></div>
            <div id=""conf2"" class=""conf"" style=""height:25px; width:154px; margin-top:2px; margin-left:169px;""></div>
            <div id=""conf3"" class=""conf"" style=""height:25px; width:154px; margin-top:2px; margin-left:323px;""></div>
            <div id=""conf4"" class=""conf"" style=""height:25px; width:154px; margin-top:2px; margin-left:477px;""></div>
          <div id=""conf5"" class=""conf"" style=""height:25px; width:154px; margin-top:2px; margin-left:631px;""></div>","6","","","","","","","","","","","","50",""
"","","","","","","","","","","","Summary Trial","244","2.1.0","210987","67eb09d69af29d8b61649c0d","Prolific","1","","266","","33","2","","e","360","313","","","","true","3.8500000000000014","0","","Test","47","","6"
"","","","","","","","","","","","html-keyboard-response","246","2.1.0","212002","67eb09d69af29d8b61649c0d","Prolific","1","","null","","34","2","<p style=""font-size: 70pt;"">+</p>","null","","","","","","","","","","","","",""
"","","","","","","","","","","","Stimulus Presentation","247","2.1.0","212317","67eb09d69af29d8b61649c0d","Prolific","1","","null","","34","2","","null","313","365","313","52","e","false","3.9500000000000015","","","","","",""
"","","","","","","","","","","","Stimulus Response","248","2.1.0","212836","67eb09d69af29d8b61649c0d","Prolific","1","","519","","34","2","","w","","","","","","","","0","","","","",""
"","","","","","","","","","","","Feedback","249","2.1.0","213347","67eb09d69af29d8b61649c0d","Prolific","1","","null","","34","2","","null","","","","","","","","","","","","",""
"","","","","","","","","","","","Confidence Rating","250","2.1.0","216569","67eb09d69af29d8b61649c0d","Prolific","1","","3221","","34","2","<h3>Rate your confidence:</h3>
            <div id=""conf1"" class=""conf"" style=""height:25px; width:154px; margin-top:2px; margin-left:15px;""></div>
            <div id=""conf2"" class=""conf"" style=""height:25px; width:154px; margin-top:2px; margin-left:169px;""></div>
            <div id=""conf3"" class=""conf"" style=""height:25px; width:154px; margin-top:2px; margin-left:323px;""></div>
            <div id=""conf4"" class=""conf"" style=""height:25px; width:154px; margin-top:2px; margin-left:477px;""></div>
          <div id=""conf5"" class=""conf"" style=""height:25px; width:154px; margin-top:2px; margin-left:631px;""></div>","6","","","","","","","","","","","","50",""
"","","","","","","","","","","","Summary Trial","251","2.1.0","216570","67eb09d69af29d8b61649c0d","Prolific","1","","519","","34","2","","w","313","365","","","","false","3.9500000000000015","0","","Test","52","","6"
"","","","","","","","","","","","html-keyboard-response","253","2.1.0","217578","67eb09d69af29d8b61649c0d","Prolific","1","","null","","35","2","<p style=""font-size: 70pt;"">+</p>","null","","","","","","","","","","","","",""
"","","","","","","","","","","","Stimulus Presentation","254","2.1.0","217889","67eb09d69af29d8b61649c0d","Prolific","1","","null","","35","2","","null","313","370","313","57","e","false","4.050000000000002","","","","","",""
"","","","","","","","","","","","Stimulus Response","255","2.1.0","218937","67eb09d69af29d8b61649c0d","Prolific","1","","1047","","35","2","","e","","","","","","","","1","","","","",""
"","","","","","","","","","","","Feedback","256","2.1.0","219453","67eb09d69af29d8b61649c0d","Prolific","1","","null","","35","2","","null","","","","","","","","","","","","",""
"","","","","","","","","","","","Confidence Rating","257","2.1.0","224709","67eb09d69af29d8b61649c0d","Prolific","1","","5254","","35","2","<h3>Rate your confidence:</h3>
            <div id=""conf1"" class=""conf"" style=""height:25px; width:154px; margin-top:2px; margin-left:15px;""></div>
            <div id=""conf2"" class=""conf"" style=""height:25px; width:154px; margin-top:2px; margin-left:169px;""></div>
            <div id=""conf3"" class=""conf"" style=""height:25px; width:154px; margin-top:2px; margin-left:323px;""></div>
            <div id=""conf4"" class=""conf"" style=""height:25px; width:154px; margin-top:2px; margin-left:477px;""></div>
          <div id=""conf5"" class=""conf"" style=""height:25px; width:154px; margin-top:2px; margin-left:631px;""></div>","6","","","","","","","","","","","","50",""
"","","","","","","","","","","","Summary Trial","258","2.1.0","224710","67eb09d69af29d8b61649c0d","Prolific","1","","1047","","35","2","","e","313","370","","","","false","4.050000000000002","1","","Test","57","","6"
"","","","","","","","","","","","html-keyboard-response","260","2.1.0","225718","67eb09d69af29d8b61649c0d","Prolific","1","","null","","36","2","<p style=""font-size: 70pt;"">+</p>","null","","","","","","","","","","","","",""
"","","","","","","","","","","","Stimulus Presentation","261","2.1.0","226025","67eb09d69af29d8b61649c0d","Prolific","1","","null","","36","2","","null","370","313","313","57","w","true","4.050000000000002","","","","","",""
"","","","","","","","","","","","Stimulus Response","262","2.1.0","227602","67eb09d69af29d8b61649c0d","Prolific","1","","1575","","36","2","","w","","","","","","","","1","","","","",""
"","","","","","","","","","","","Feedback","263","2.1.0","228117","67eb09d69af29d8b61649c0d","Prolific","1","","null","","36","2","","null","","","","","","","","","","","","",""
"","","","","","","","","","","","Confidence Rating","264","2.1.0","230455","67eb09d69af29d8b61649c0d","Prolific","1","","2336","","36","2","<h3>Rate your confidence:</h3>
            <div id=""conf1"" class=""conf"" style=""height:25px; width:154px; margin-top:2px; margin-left:15px;""></div>
            <div id=""conf2"" class=""conf"" style=""height:25px; width:154px; margin-top:2px; margin-left:169px;""></div>
            <div id=""conf3"" class=""conf"" style=""height:25px; width:154px; margin-top:2px; margin-left:323px;""></div>
            <div id=""conf4"" class=""conf"" style=""height:25px; width:154px; margin-top:2px; margin-left:477px;""></div>
          <div id=""conf5"" class=""conf"" style=""height:25px; width:154px; margin-top:2px; margin-left:631px;""></div>","6","","","","","","","","","","","","50",""
"","","","","","","","","","","","Summary Trial","265","2.1.0","230455","67eb09d69af29d8b61649c0d","Prolific","1","","1575","","36","2","","w","370","313","","","","true","4.050000000000002","1","","Test","57","","6"
"","","","","","","","","","","","html-keyboard-response","267","2.1.0","231472","67eb09d69af29d8b61649c0d","Prolific","1","","null","","37","2","<p style=""font-size: 70pt;"">+</p>","null","","","","","","","","","","","","",""
"","","","","","","","","","","","Stimulus Presentation","268","2.1.0","231780","67eb09d69af29d8b61649c0d","Prolific","1","","null","","37","2","","null","365","313","313","52","w","true","3.9500000000000015","","","","","",""
"","","","","","","","","","","","Stimulus Response","269","2.1.0","232209","67eb09d69af29d8b61649c0d","Prolific","1","","428","","37","2","","e","","","","","","","","0","","","","",""
"","","","","","","","","","","","Feedback","270","2.1.0","232718","67eb09d69af29d8b61649c0d","Prolific","1","","null","","37","2","","null","","","","","","","","","","","","",""
"","","","","","","","","","","","Confidence Rating","271","2.1.0","234109","67eb09d69af29d8b61649c0d","Prolific","1","","1389","","37","2","<h3>Rate your confidence:</h3>
            <div id=""conf1"" class=""conf"" style=""height:25px; width:154px; margin-top:2px; margin-left:15px;""></div>
            <div id=""conf2"" class=""conf"" style=""height:25px; width:154px; margin-top:2px; margin-left:169px;""></div>
            <div id=""conf3"" class=""conf"" style=""height:25px; width:154px; margin-top:2px; margin-left:323px;""></div>
            <div id=""conf4"" class=""conf"" style=""height:25px; width:154px; margin-top:2px; margin-left:477px;""></div>
          <div id=""conf5"" class=""conf"" style=""height:25px; width:154px; margin-top:2px; margin-left:631px;""></div>","5","","","","","","","","","","","","50",""
"","","","","","","","","","","","Summary Trial","272","2.1.0","234109","67eb09d69af29d8b61649c0d","Prolific","1","","428","","37","2","","e","365","313","","","","true","3.9500000000000015","0","","Test","52","","5"
"","","","","","","","","","","","html-keyboard-response","274","2.1.0","235112","67eb09d69af29d8b61649c0d","Prolific","1","","null","","38","2","<p style=""font-size: 70pt;"">+</p>","null","","","","","","","","","","","","",""
"","","","","","","","","","","","Stimulus Presentation","275","2.1.0","235427","67eb09d69af29d8b61649c0d","Prolific","1","","null","","38","2","","null","313","370","313","57","e","false","4.050000000000002","","","","","",""
"","","","","","","","","","","","Stimulus Response","276","2.1.0","235784","67eb09d69af29d8b61649c0d","Prolific","1","","357","","38","2","","e","","","","","","","","1","","","","",""
"","","","","","","","","","","","Feedback","277","2.1.0","236298","67eb09d69af29d8b61649c0d","Prolific","1","","null","","38","2","","null","","","","","","","","","","","","",""
"","","","","","","","","","","","Confidence Rating","278","2.1.0","238046","67eb09d69af29d8b61649c0d","Prolific","1","","1746","","38","2","<h3>Rate your confidence:</h3>
            <div id=""conf1"" class=""conf"" style=""height:25px; width:154px; margin-top:2px; margin-left:15px;""></div>
            <div id=""conf2"" class=""conf"" style=""height:25px; width:154px; margin-top:2px; margin-left:169px;""></div>
            <div id=""conf3"" class=""conf"" style=""height:25px; width:154px; margin-top:2px; margin-left:323px;""></div>
            <div id=""conf4"" class=""conf"" style=""height:25px; width:154px; margin-top:2px; margin-left:477px;""></div>
          <div id=""conf5"" class=""conf"" style=""height:25px; width:154px; margin-top:2px; margin-left:631px;""></div>","6","","","","","","","","","","","","50",""
"","","","","","","","","","","","Summary Trial","279","2.1.0","238046","67eb09d69af29d8b61649c0d","Prolific","1","","357","","38","2","","e","313","370","","","","false","4.050000000000002","1","","Test","57","","6"
"","","","","","","","","","","","html-keyboard-response","281","2.1.0","239060","67eb09d69af29d8b61649c0d","Prolific","1","","null","","39","2","<p style=""font-size: 70pt;"">+</p>","null","","","","","","","","","","","","",""
"","","","","","","","","","","","Stimulus Presentation","282","2.1.0","239376","67eb09d69af29d8b61649c0d","Prolific","1","","null","","39","2","","null","313","370","313","57","e","false","4.050000000000002","","","","","",""
"","","","","","","","","","","","Stimulus Response","283","2.1.0","239424","67eb09d69af29d8b61649c0d","Prolific","1","","47","","39","2","","w","","","","","","","","0","","","","",""
"","","","","","","","","","","","Feedback","284","2.1.0","239931","67eb09d69af29d8b61649c0d","Prolific","1","","null","","39","2","","null","","","","","","","","","","","","",""
"","","","","","","","","","","","Confidence Rating","285","2.1.0","241535","67eb09d69af29d8b61649c0d","Prolific","1","","1603","","39","2","<h3>Rate your confidence:</h3>
            <div id=""conf1"" class=""conf"" style=""height:25px; width:154px; margin-top:2px; margin-left:15px;""></div>
            <div id=""conf2"" class=""conf"" style=""height:25px; width:154px; margin-top:2px; margin-left:169px;""></div>
            <div id=""conf3"" class=""conf"" style=""height:25px; width:154px; margin-top:2px; margin-left:323px;""></div>
            <div id=""conf4"" class=""conf"" style=""height:25px; width:154px; margin-top:2px; margin-left:477px;""></div>
          <div id=""conf5"" class=""conf"" style=""height:25px; width:154px; margin-top:2px; margin-left:631px;""></div>","6","","","","","","","","","","","","50",""
"","","","","","","","","","","","Summary Trial","286","2.1.0","241536","67eb09d69af29d8b61649c0d","Prolific","1","","47","","39","2","","w","313","370","","","","false","4.050000000000002","0","","Test","57","","6"
"","","","","","","","","","","","html-keyboard-response","288","2.1.0","242538","67eb09d69af29d8b61649c0d","Prolific","1","","null","","40","2","<p style=""font-size: 70pt;"">+</p>","null","","","","","","","","","","","","",""
"","","","","","","","","","","","Stimulus Presentation","289","2.1.0","242843","67eb09d69af29d8b61649c0d","Prolific","1","","null","","40","2","","null","376","313","313","63","w","true","4.150000000000001","","","","","",""
"","","","","","","","","","","","Stimulus Response","290","2.1.0","243300","67eb09d69af29d8b61649c0d","Prolific","1","","457","","40","2","","w","","","","","","","","1","","","","",""
"","","","","","","","","","","","Feedback","291","2.1.0","243812","67eb09d69af29d8b61649c0d","Prolific","1","","null","","40","2","","null","","","","","","","","","","","","",""
"","","","","","","","","","","","Confidence Rating","292","2.1.0","245346","67eb09d69af29d8b61649c0d","Prolific","1","","1532","","40","2","<h3>Rate your confidence:</h3>
            <div id=""conf1"" class=""conf"" style=""height:25px; width:154px; margin-top:2px; margin-left:15px;""></div>
            <div id=""conf2"" class=""conf"" style=""height:25px; width:154px; margin-top:2px; margin-left:169px;""></div>
            <div id=""conf3"" class=""conf"" style=""height:25px; width:154px; margin-top:2px; margin-left:323px;""></div>
            <div id=""conf4"" class=""conf"" style=""height:25px; width:154px; margin-top:2px; margin-left:477px;""></div>
          <div id=""conf5"" class=""conf"" style=""height:25px; width:154px; margin-top:2px; margin-left:631px;""></div>","6","","","","","","","","","","","","50",""
"","","","","","","","","","","","Summary Trial","293","2.1.0","245347","67eb09d69af29d8b61649c0d","Prolific","1","","457","","40","2","","w","376","313","","","","true","4.150000000000001","1","","Test","63","","6"
"","","","","","","","","","","","html-keyboard-response","295","2.1.0","246363","67eb09d69af29d8b61649c0d","Prolific","1","","null","","41","2","<p style=""font-size: 70pt;"">+</p>","null","","","","","","","","","","","","",""
"","","","","","","","","","","","Stimulus Presentation","296","2.1.0","246674","67eb09d69af29d8b61649c0d","Prolific","1","","null","","41","2","","null","313","376","313","63","e","false","4.150000000000001","","","","","",""
"","","","","","","","","","","","Stimulus Response","297","2.1.0","247017","67eb09d69af29d8b61649c0d","Prolific","1","","342","","41","2","","w","","","","","","","","0","","","","",""
"","","","","","","","","","","","Feedback","298","2.1.0","247519","67eb09d69af29d8b61649c0d","Prolific","1","","null","","41","2","","null","","","","","","","","","","","","",""
"","","","","","","","","","","","Confidence Rating","299","2.1.0","249020","67eb09d69af29d8b61649c0d","Prolific","1","","1499","","41","2","<h3>Rate your confidence:</h3>
            <div id=""conf1"" class=""conf"" style=""height:25px; width:154px; margin-top:2px; margin-left:15px;""></div>
            <div id=""conf2"" class=""conf"" style=""height:25px; width:154px; margin-top:2px; margin-left:169px;""></div>
            <div id=""conf3"" class=""conf"" style=""height:25px; width:154px; margin-top:2px; margin-left:323px;""></div>
            <div id=""conf4"" class=""conf"" style=""height:25px; width:154px; margin-top:2px; margin-left:477px;""></div>
          <div id=""conf5"" class=""conf"" style=""height:25px; width:154px; margin-top:2px; margin-left:631px;""></div>","6","","","","","","","","","","","","50",""
"","","","","","","","","","","","Summary Trial","300","2.1.0","249021","67eb09d69af29d8b61649c0d","Prolific","1","","342","","41","2","","w","313","376","","","","false","4.150000000000001","0","","Test","63","","6"
"","","","","","","","","","","","html-keyboard-response","302","2.1.0","250033","67eb09d69af29d8b61649c0d","Prolific","1","","null","","42","2","<p style=""font-size: 70pt;"">+</p>","null","","","","","","","","","","","","",""
"","","","","","","","","","","","Stimulus Presentation","303","2.1.0","250339","67eb09d69af29d8b61649c0d","Prolific","1","","null","","42","2","","null","383","313","313","70","w","true","4.250000000000001","","","","","",""
"","","","","","","","","","","","Stimulus Response","304","2.1.0","250778","67eb09d69af29d8b61649c0d","Prolific","1","","437","","42","2","","w","","","","","","","","1","","","","",""
"","","","","","","","","","","","Feedback","305","2.1.0","251279","67eb09d69af29d8b61649c0d","Prolific","1","","null","","42","2","","null","","","","","","","","","","","","",""
"","","","","","","","","","","","Confidence Rating","306","2.1.0","252605","67eb09d69af29d8b61649c0d","Prolific","1","","1325","","42","2","<h3>Rate your confidence:</h3>
            <div id=""conf1"" class=""conf"" style=""height:25px; width:154px; margin-top:2px; margin-left:15px;""></div>
            <div id=""conf2"" class=""conf"" style=""height:25px; width:154px; margin-top:2px; margin-left:169px;""></div>
            <div id=""conf3"" class=""conf"" style=""height:25px; width:154px; margin-top:2px; margin-left:323px;""></div>
            <div id=""conf4"" class=""conf"" style=""height:25px; width:154px; margin-top:2px; margin-left:477px;""></div>
          <div id=""conf5"" class=""conf"" style=""height:25px; width:154px; margin-top:2px; margin-left:631px;""></div>","6","","","","","","","","","","","","50",""
"","","","","","","","","","","","Summary Trial","307","2.1.0","252606","67eb09d69af29d8b61649c0d","Prolific","1","","437","","42","2","","w","383","313","","","","true","4.250000000000001","1","","Test","70","","6"
"","","","","","","","","","","","html-keyboard-response","309","2.1.0","253622","67eb09d69af29d8b61649c0d","Prolific","1","","null","","43","2","<p style=""font-size: 70pt;"">+</p>","null","","","","","","","","","","","","",""
"","","","","","","","","","","","Stimulus Presentation","310","2.1.0","253927","67eb09d69af29d8b61649c0d","Prolific","1","","null","","43","2","","null","383","313","313","70","w","true","4.250000000000001","","","","","",""
"","","","","","","","","","","","Stimulus Response","311","2.1.0","254399","67eb09d69af29d8b61649c0d","Prolific","1","","471","","43","2","","e","","","","","","","","0","","","","",""
"","","","","","","","","","","","Feedback","312","2.1.0","254911","67eb09d69af29d8b61649c0d","Prolific","1","","null","","43","2","","null","","","","","","","","","","","","",""
"","","","","","","","","","","","Confidence Rating","313","2.1.0","256942","67eb09d69af29d8b61649c0d","Prolific","1","","2030","","43","2","<h3>Rate your confidence:</h3>
            <div id=""conf1"" class=""conf"" style=""height:25px; width:154px; margin-top:2px; margin-left:15px;""></div>
            <div id=""conf2"" class=""conf"" style=""height:25px; width:154px; margin-top:2px; margin-left:169px;""></div>
            <div id=""conf3"" class=""conf"" style=""height:25px; width:154px; margin-top:2px; margin-left:323px;""></div>
            <div id=""conf4"" class=""conf"" style=""height:25px; width:154px; margin-top:2px; margin-left:477px;""></div>
          <div id=""conf5"" class=""conf"" style=""height:25px; width:154px; margin-top:2px; margin-left:631px;""></div>","5","","","","","","","","","","","","50",""
"","","","","","","","","","","","Summary Trial","314","2.1.0","256942","67eb09d69af29d8b61649c0d","Prolific","1","","471","","43","2","","e","383","313","","","","true","4.250000000000001","0","","Test","70","","5"
"","","","","","","","","","","","html-keyboard-response","316","2.1.0","257958","67eb09d69af29d8b61649c0d","Prolific","1","","null","","44","2","<p style=""font-size: 70pt;"">+</p>","null","","","","","","","","","","","","",""
"","","","","","","","","","","","Stimulus Presentation","317","2.1.0","258281","67eb09d69af29d8b61649c0d","Prolific","1","","null","","44","2","","null","313","390","313","77","e","false","4.3500000000000005","","","","","",""
"","","","","","","","","","","","Stimulus Response","318","2.1.0","258533","67eb09d69af29d8b61649c0d","Prolific","1","","250","","44","2","","e","","","","","","","","1","","","","",""
"","","","","","","","","","","","Feedback","319","2.1.0","259035","67eb09d69af29d8b61649c0d","Prolific","1","","null","","44","2","","null","","","","","","","","","","","","",""
"","","","","","","","","","","","Confidence Rating","320","2.1.0","260397","67eb09d69af29d8b61649c0d","Prolific","1","","1360","","44","2","<h3>Rate your confidence:</h3>
            <div id=""conf1"" class=""conf"" style=""height:25px; width:154px; margin-top:2px; margin-left:15px;""></div>
            <div id=""conf2"" class=""conf"" style=""height:25px; width:154px; margin-top:2px; margin-left:169px;""></div>
            <div id=""conf3"" class=""conf"" style=""height:25px; width:154px; margin-top:2px; margin-left:323px;""></div>
            <div id=""conf4"" class=""conf"" style=""height:25px; width:154px; margin-top:2px; margin-left:477px;""></div>
          <div id=""conf5"" class=""conf"" style=""height:25px; width:154px; margin-top:2px; margin-left:631px;""></div>","6","","","","","","","","","","","","50",""
"","","","","","","","","","","","Summary Trial","321","2.1.0","260398","67eb09d69af29d8b61649c0d","Prolific","1","","250","","44","2","","e","313","390","","","","false","4.3500000000000005","1","","Test","77","","6"
"","","","","","","","","","","","html-keyboard-response","323","2.1.0","261408","67eb09d69af29d8b61649c0d","Prolific","1","","null","","45","2","<p style=""font-size: 70pt;"">+</p>","null","","","","","","","","","","","","",""
"","","","","","","","","","","","Stimulus Presentation","324","2.1.0","261712","67eb09d69af29d8b61649c0d","Prolific","1","","null","","45","2","","null","313","390","313","77","e","false","4.3500000000000005","","","","","",""
"","","","","","","","","","","","Stimulus Response","325","2.1.0","262324","67eb09d69af29d8b61649c0d","Prolific","1","","611","","45","2","","e","","","","","","","","1","","","","",""
"","","","","","","","","","","","Feedback","326","2.1.0","262832","67eb09d69af29d8b61649c0d","Prolific","1","","null","","45","2","","null","","","","","","","","","","","","",""
"","","","","","","","","","","","Confidence Rating","327","2.1.0","266772","67eb09d69af29d8b61649c0d","Prolific","1","","3937","","45","2","<h3>Rate your confidence:</h3>
            <div id=""conf1"" class=""conf"" style=""height:25px; width:154px; margin-top:2px; margin-left:15px;""></div>
            <div id=""conf2"" class=""conf"" style=""height:25px; width:154px; margin-top:2px; margin-left:169px;""></div>
            <div id=""conf3"" class=""conf"" style=""height:25px; width:154px; margin-top:2px; margin-left:323px;""></div>
            <div id=""conf4"" class=""conf"" style=""height:25px; width:154px; margin-top:2px; margin-left:477px;""></div>
          <div id=""conf5"" class=""conf"" style=""height:25px; width:154px; margin-top:2px; margin-left:631px;""></div>","6","","","","","","","","","","","","50",""
"","","","","","","","","","","","Summary Trial","328","2.1.0","266772","67eb09d69af29d8b61649c0d","Prolific","1","","611","","45","2","","e","313","390","","","","false","4.3500000000000005","1","","Test","77","","6"
"","","","","","","","","","","","html-keyboard-response","330","2.1.0","267785","67eb09d69af29d8b61649c0d","Prolific","1","","null","","46","2","<p style=""font-size: 70pt;"">+</p>","null","","","","","","","","","","","","",""
"","","","","","","","","","","","Stimulus Presentation","331","2.1.0","268096","67eb09d69af29d8b61649c0d","Prolific","1","","null","","46","2","","null","383","313","313","70","w","true","4.250000000000001","","","","","",""
"","","","","","","","","","","","Stimulus Response","332","2.1.0","268398","67eb09d69af29d8b61649c0d","Prolific","1","","301","","46","2","","w","","","","","","","","1","","","","",""
"","","","","","","","","","","","Feedback","333","2.1.0","268906","67eb09d69af29d8b61649c0d","Prolific","1","","null","","46","2","","null","","","","","","","","","","","","",""
"","","","","","","","","","","","Confidence Rating","334","2.1.0","272899","67eb09d69af29d8b61649c0d","Prolific","1","","3992","","46","2","<h3>Rate your confidence:</h3>
            <div id=""conf1"" class=""conf"" style=""height:25px; width:154px; margin-top:2px; margin-left:15px;""></div>
            <div id=""conf2"" class=""conf"" style=""height:25px; width:154px; margin-top:2px; margin-left:169px;""></div>
            <div id=""conf3"" class=""conf"" style=""height:25px; width:154px; margin-top:2px; margin-left:323px;""></div>
            <div id=""conf4"" class=""conf"" style=""height:25px; width:154px; margin-top:2px; margin-left:477px;""></div>
          <div id=""conf5"" class=""conf"" style=""height:25px; width:154px; margin-top:2px; margin-left:631px;""></div>","6","","","","","","","","","","","","50",""
"","","","","","","","","","","","Summary Trial","335","2.1.0","272900","67eb09d69af29d8b61649c0d","Prolific","1","","301","","46","2","","w","383","313","","","","true","4.250000000000001","1","","Test","70","","6"
"","","","","","","","","","","","html-keyboard-response","337","2.1.0","273913","67eb09d69af29d8b61649c0d","Prolific","1","","null","","47","2","<p style=""font-size: 70pt;"">+</p>","null","","","","","","","","","","","","",""
"","","","","","","","","","","","Stimulus Presentation","338","2.1.0","274226","67eb09d69af29d8b61649c0d","Prolific","1","","null","","47","2","","null","313","383","313","70","e","false","4.250000000000001","","","","","",""
"","","","","","","","","","","","Stimulus Response","339","2.1.0","274500","67eb09d69af29d8b61649c0d","Prolific","1","","271","","47","2","","e","","","","","","","","1","","","","",""
"","","","","","","","","","","","Feedback","340","2.1.0","275008","67eb09d69af29d8b61649c0d","Prolific","1","","null","","47","2","","null","","","","","","","","","","","","",""
"","","","","","","","","","","","Confidence Rating","341","2.1.0","276670","67eb09d69af29d8b61649c0d","Prolific","1","","1662","","47","2","<h3>Rate your confidence:</h3>
            <div id=""conf1"" class=""conf"" style=""height:25px; width:154px; margin-top:2px; margin-left:15px;""></div>
            <div id=""conf2"" class=""conf"" style=""height:25px; width:154px; margin-top:2px; margin-left:169px;""></div>
            <div id=""conf3"" class=""conf"" style=""height:25px; width:154px; margin-top:2px; margin-left:323px;""></div>
            <div id=""conf4"" class=""conf"" style=""height:25px; width:154px; margin-top:2px; margin-left:477px;""></div>
          <div id=""conf5"" class=""conf"" style=""height:25px; width:154px; margin-top:2px; margin-left:631px;""></div>","6","","","","","","","","","","","","50",""
"","","","","","","","","","","","Summary Trial","342","2.1.0","276671","67eb09d69af29d8b61649c0d","Prolific","1","","271","","47","2","","e","313","383","","","","false","4.250000000000001","1","","Test","70","","6"
"","","","","","","","","","","","html-keyboard-response","344","2.1.0","277683","67eb09d69af29d8b61649c0d","Prolific","1","","null","","48","2","<p style=""font-size: 70pt;"">+</p>","null","","","","","","","","","","","","",""
"","","","","","","","","","","","Stimulus Presentation","345","2.1.0","277991","67eb09d69af29d8b61649c0d","Prolific","1","","null","","48","2","","null","376","313","313","63","w","true","4.150000000000001","","","","","",""
"","","","","","","","","","","","Stimulus Response","346","2.1.0","278233","67eb09d69af29d8b61649c0d","Prolific","1","","240","","48","2","","e","","","","","","","","0","","","","",""
"","","","","","","","","","","","Feedback","347","2.1.0","278734","67eb09d69af29d8b61649c0d","Prolific","1","","null","","48","2","","null","","","","","","","","","","","","",""
"","","","","","","","","","","","Confidence Rating","348","2.1.0","280068","67eb09d69af29d8b61649c0d","Prolific","1","","1332","","48","2","<h3>Rate your confidence:</h3>
            <div id=""conf1"" class=""conf"" style=""height:25px; width:154px; margin-top:2px; margin-left:15px;""></div>
            <div id=""conf2"" class=""conf"" style=""height:25px; width:154px; margin-top:2px; margin-left:169px;""></div>
            <div id=""conf3"" class=""conf"" style=""height:25px; width:154px; margin-top:2px; margin-left:323px;""></div>
            <div id=""conf4"" class=""conf"" style=""height:25px; width:154px; margin-top:2px; margin-left:477px;""></div>
          <div id=""conf5"" class=""conf"" style=""height:25px; width:154px; margin-top:2px; margin-left:631px;""></div>","5","","","","","","","","","","","","50",""
"","","","","","","","","","","","Summary Trial","349","2.1.0","280068","67eb09d69af29d8b61649c0d","Prolific","1","","240","","48","2","","e","376","313","","","","true","4.150000000000001","0","","Test","63","","5"
"","","","","","","","","","","","html-keyboard-response","351","2.1.0","281079","67eb09d69af29d8b61649c0d","Prolific","1","","null","","49","2","<p style=""font-size: 70pt;"">+</p>","null","","","","","","","","","","","","",""
"","","","","","","","","","","","Stimulus Presentation","352","2.1.0","281398","67eb09d69af29d8b61649c0d","Prolific","1","","null","","49","2","","null","383","313","313","70","w","true","4.250000000000001","","","","","",""
"","","","","","","","","","","","Stimulus Response","353","2.1.0","281503","67eb09d69af29d8b61649c0d","Prolific","1","","104","","49","2","","w","","","","","","","","1","","","","",""
"","","","","","","","","","","","Feedback","354","2.1.0","282008","67eb09d69af29d8b61649c0d","Prolific","1","","null","","49","2","","null","","","","","","","","","","","","",""
"","","","","","","","","","","","Confidence Rating","355","2.1.0","284080","67eb09d69af29d8b61649c0d","Prolific","1","","2071","","49","2","<h3>Rate your confidence:</h3>
            <div id=""conf1"" class=""conf"" style=""height:25px; width:154px; margin-top:2px; margin-left:15px;""></div>
            <div id=""conf2"" class=""conf"" style=""height:25px; width:154px; margin-top:2px; margin-left:169px;""></div>
            <div id=""conf3"" class=""conf"" style=""height:25px; width:154px; margin-top:2px; margin-left:323px;""></div>
            <div id=""conf4"" class=""conf"" style=""height:25px; width:154px; margin-top:2px; margin-left:477px;""></div>
          <div id=""conf5"" class=""conf"" style=""height:25px; width:154px; margin-top:2px; margin-left:631px;""></div>","6","","","","","","","","","","","","50",""
"","","","","","","","","","","","Summary Trial","356","2.1.0","284081","67eb09d69af29d8b61649c0d","Prolific","1","","104","","49","2","","w","383","313","","","","true","4.250000000000001","1","","Test","70","","6"
"","","","","","","","","","","","html-keyboard-response","358","2.1.0","285091","67eb09d69af29d8b61649c0d","Prolific","1","","null","","50","2","<p style=""font-size: 70pt;"">+</p>","null","","","","","","","","","","","","",""
"","","","","","","","","","","","Stimulus Presentation","359","2.1.0","285398","67eb09d69af29d8b61649c0d","Prolific","1","","null","","50","2","","null","313","383","313","70","e","false","4.250000000000001","","","","","",""
"","","","","","","","","","","","Stimulus Response","360","2.1.0","285719","67eb09d69af29d8b61649c0d","Prolific","1","","319","","50","2","","e","","","","","","","","1","","","","",""
"","","","","","","","","","","","Feedback","361","2.1.0","286234","67eb09d69af29d8b61649c0d","Prolific","1","","null","","50","2","","null","","","","","","","","","","","","",""
"","","","","","","","","","","","Confidence Rating","362","2.1.0","288118","67eb09d69af29d8b61649c0d","Prolific","1","","1883","","50","2","<h3>Rate your confidence:</h3>
            <div id=""conf1"" class=""conf"" style=""height:25px; width:154px; margin-top:2px; margin-left:15px;""></div>
            <div id=""conf2"" class=""conf"" style=""height:25px; width:154px; margin-top:2px; margin-left:169px;""></div>
            <div id=""conf3"" class=""conf"" style=""height:25px; width:154px; margin-top:2px; margin-left:323px;""></div>
            <div id=""conf4"" class=""conf"" style=""height:25px; width:154px; margin-top:2px; margin-left:477px;""></div>
          <div id=""conf5"" class=""conf"" style=""height:25px; width:154px; margin-top:2px; margin-left:631px;""></div>","6","","","","","","","","","","","","50",""
"","","","","","","","","","","","Summary Trial","363","2.1.0","288119","67eb09d69af29d8b61649c0d","Prolific","1","","319","","50","2","","e","313","383","","","","false","4.250000000000001","1","","Test","70","","6"
"","","","","","","","","","","","html-keyboard-response","365","2.1.0","289121","67eb09d69af29d8b61649c0d","Prolific","1","","null","","51","2","<p style=""font-size: 70pt;"">+</p>","null","","","","","","","","","","","","",""
"","","","","","","","","","","","Stimulus Presentation","366","2.1.0","289425","67eb09d69af29d8b61649c0d","Prolific","1","","null","","51","2","","null","313","376","313","63","e","false","4.150000000000001","","","","","",""
"","","","","","","","","","","","Stimulus Response","367","2.1.0","289962","67eb09d69af29d8b61649c0d","Prolific","1","","535","","51","2","","w","","","","","","","","0","","","","",""
"","","","","","","","","","","","Feedback","368","2.1.0","290470","67eb09d69af29d8b61649c0d","Prolific","1","","null","","51","2","","null","","","","","","","","","","","","",""
"","","","","","","","","","","","Confidence Rating","369","2.1.0","292133","67eb09d69af29d8b61649c0d","Prolific","1","","1662","","51","2","<h3>Rate your confidence:</h3>
            <div id=""conf1"" class=""conf"" style=""height:25px; width:154px; margin-top:2px; margin-left:15px;""></div>
            <div id=""conf2"" class=""conf"" style=""height:25px; width:154px; margin-top:2px; margin-left:169px;""></div>
            <div id=""conf3"" class=""conf"" style=""height:25px; width:154px; margin-top:2px; margin-left:323px;""></div>
            <div id=""conf4"" class=""conf"" style=""height:25px; width:154px; margin-top:2px; margin-left:477px;""></div>
          <div id=""conf5"" class=""conf"" style=""height:25px; width:154px; margin-top:2px; margin-left:631px;""></div>","6","","","","","","","","","","","","50",""
"","","","","","","","","","","","Summary Trial","370","2.1.0","292133","67eb09d69af29d8b61649c0d","Prolific","1","","535","","51","2","","w","313","376","","","","false","4.150000000000001","0","","Test","63","","6"
"","","","","","","","","","","","html-keyboard-response","372","2.1.0","293140","67eb09d69af29d8b61649c0d","Prolific","1","","null","","52","2","<p style=""font-size: 70pt;"">+</p>","null","","","","","","","","","","","","",""
"","","","","","","","","","","","Stimulus Presentation","373","2.1.0","293454","67eb09d69af29d8b61649c0d","Prolific","1","","null","","52","2","","null","383","313","313","70","w","true","4.250000000000001","","","","","",""
"","","","","","","","","","","","Stimulus Response","374","2.1.0","293646","67eb09d69af29d8b61649c0d","Prolific","1","","190","","52","2","","e","","","","","","","","0","","","","",""
"","","","","","","","","","","","Feedback","375","2.1.0","294152","67eb09d69af29d8b61649c0d","Prolific","1","","null","","52","2","","null","","","","","","","","","","","","",""
"","","","","","","","","","","","Confidence Rating","376","2.1.0","296621","67eb09d69af29d8b61649c0d","Prolific","1","","2468","","52","2","<h3>Rate your confidence:</h3>
            <div id=""conf1"" class=""conf"" style=""height:25px; width:154px; margin-top:2px; margin-left:15px;""></div>
            <div id=""conf2"" class=""conf"" style=""height:25px; width:154px; margin-top:2px; margin-left:169px;""></div>
            <div id=""conf3"" class=""conf"" style=""height:25px; width:154px; margin-top:2px; margin-left:323px;""></div>
            <div id=""conf4"" class=""conf"" style=""height:25px; width:154px; margin-top:2px; margin-left:477px;""></div>
          <div id=""conf5"" class=""conf"" style=""height:25px; width:154px; margin-top:2px; margin-left:631px;""></div>","5","","","","","","","","","","","","50",""
"","","","","","","","","","","","Summary Trial","377","2.1.0","296621","67eb09d69af29d8b61649c0d","Prolific","1","","190","","52","2","","e","383","313","","","","true","4.250000000000001","0","","Test","70","","5"
"","","","","","","","","","","","html-keyboard-response","379","2.1.0","297630","67eb09d69af29d8b61649c0d","Prolific","1","","null","","53","2","<p style=""font-size: 70pt;"">+</p>","null","","","","","","","","","","","","",""
"","","","","","","","","","","","Stimulus Presentation","380","2.1.0","297934","67eb09d69af29d8b61649c0d","Prolific","1","","null","","53","2","","null","313","390","313","77","e","false","4.3500000000000005","","","","","",""
"","","","","","","","","","","","Stimulus Response","381","2.1.0","298664","67eb09d69af29d8b61649c0d","Prolific","1","","728","","53","2","","w","","","","","","","","0","","","","",""
"","","","","","","","","","","","Feedback","382","2.1.0","299167","67eb09d69af29d8b61649c0d","Prolific","1","","null","","53","2","","null","","","","","","","","","","","","",""
"","","","","","","","","","","","Confidence Rating","383","2.1.0","300903","67eb09d69af29d8b61649c0d","Prolific","1","","1735","","53","2","<h3>Rate your confidence:</h3>
            <div id=""conf1"" class=""conf"" style=""height:25px; width:154px; margin-top:2px; margin-left:15px;""></div>
            <div id=""conf2"" class=""conf"" style=""height:25px; width:154px; margin-top:2px; margin-left:169px;""></div>
            <div id=""conf3"" class=""conf"" style=""height:25px; width:154px; margin-top:2px; margin-left:323px;""></div>
            <div id=""conf4"" class=""conf"" style=""height:25px; width:154px; margin-top:2px; margin-left:477px;""></div>
          <div id=""conf5"" class=""conf"" style=""height:25px; width:154px; margin-top:2px; margin-left:631px;""></div>","5","","","","","","","","","","","","50",""
"","","","","","","","","","","","Summary Trial","384","2.1.0","300904","67eb09d69af29d8b61649c0d","Prolific","1","","728","","53","2","","w","313","390","","","","false","4.3500000000000005","0","","Test","77","","5"
"","","","","","","","","","","","html-keyboard-response","386","2.1.0","301921","67eb09d69af29d8b61649c0d","Prolific","1","","null","","54","2","<p style=""font-size: 70pt;"">+</p>","null","","","","","","","","","","","","",""
"","","","","","","","","","","","Stimulus Presentation","387","2.1.0","302251","67eb09d69af29d8b61649c0d","Prolific","1","","null","","54","2","","null","399","313","313","86","w","true","4.45","","","","","",""
"","","","","","","","","","","","Stimulus Response","388","2.1.0","302550","67eb09d69af29d8b61649c0d","Prolific","1","","298","","54","2","","w","","","","","","","","1","","","","",""
"","","","","","","","","","","","Feedback","389","2.1.0","303065","67eb09d69af29d8b61649c0d","Prolific","1","","null","","54","2","","null","","","","","","","","","","","","",""
"","","","","","","","","","","","Confidence Rating","390","2.1.0","305945","67eb09d69af29d8b61649c0d","Prolific","1","","2879","","54","2","<h3>Rate your confidence:</h3>
            <div id=""conf1"" class=""conf"" style=""height:25px; width:154px; margin-top:2px; margin-left:15px;""></div>
            <div id=""conf2"" class=""conf"" style=""height:25px; width:154px; margin-top:2px; margin-left:169px;""></div>
            <div id=""conf3"" class=""conf"" style=""height:25px; width:154px; margin-top:2px; margin-left:323px;""></div>
            <div id=""conf4"" class=""conf"" style=""height:25px; width:154px; margin-top:2px; margin-left:477px;""></div>
          <div id=""conf5"" class=""conf"" style=""height:25px; width:154px; margin-top:2px; margin-left:631px;""></div>","6","","","","","","","","","","","","50",""
"","","","","","","","","","","","Summary Trial","391","2.1.0","305945","67eb09d69af29d8b61649c0d","Prolific","1","","298","","54","2","","w","399","313","","","","true","4.45","1","","Test","86","","6"
"","","","","","","","","","","","html-keyboard-response","393","2.1.0","306960","67eb09d69af29d8b61649c0d","Prolific","1","","null","","55","2","<p style=""font-size: 70pt;"">+</p>","null","","","","","","","","","","","","",""
"","","","","","","","","","","","Stimulus Presentation","394","2.1.0","307274","67eb09d69af29d8b61649c0d","Prolific","1","","null","","55","2","","null","313","399","313","86","e","false","4.45","","","","","",""
"","","","","","","","","","","","Stimulus Response","395","2.1.0","307506","67eb09d69af29d8b61649c0d","Prolific","1","","232","","55","2","","e","","","","","","","","1","","","","",""
"","","","","","","","","","","","Feedback","396","2.1.0","308015","67eb09d69af29d8b61649c0d","Prolific","1","","null","","55","2","","null","","","","","","","","","","","","",""
"","","","","","","","","","","","Confidence Rating","397","2.1.0","309844","67eb09d69af29d8b61649c0d","Prolific","1","","1828","","55","2","<h3>Rate your confidence:</h3>
            <div id=""conf1"" class=""conf"" style=""height:25px; width:154px; margin-top:2px; margin-left:15px;""></div>
            <div id=""conf2"" class=""conf"" style=""height:25px; width:154px; margin-top:2px; margin-left:169px;""></div>
            <div id=""conf3"" class=""conf"" style=""height:25px; width:154px; margin-top:2px; margin-left:323px;""></div>
            <div id=""conf4"" class=""conf"" style=""height:25px; width:154px; margin-top:2px; margin-left:477px;""></div>
          <div id=""conf5"" class=""conf"" style=""height:25px; width:154px; margin-top:2px; margin-left:631px;""></div>","6","","","","","","","","","","","","50",""
"","","","","","","","","","","","Summary Trial","398","2.1.0","309845","67eb09d69af29d8b61649c0d","Prolific","1","","232","","55","2","","e","313","399","","","","false","4.45","1","","Test","86","","6"
"","","","","","","","","","","","html-keyboard-response","400","2.1.0","310852","67eb09d69af29d8b61649c0d","Prolific","1","","null","","56","2","<p style=""font-size: 70pt;"">+</p>","null","","","","","","","","","","","","",""
"","","","","","","","","","","","Stimulus Presentation","401","2.1.0","311165","67eb09d69af29d8b61649c0d","Prolific","1","","null","","56","2","","null","390","313","313","77","w","true","4.3500000000000005","","","","","",""
"","","","","","","","","","","","Stimulus Response","402","2.1.0","311713","67eb09d69af29d8b61649c0d","Prolific","1","","546","","56","2","","w","","","","","","","","1","","","","",""
"","","","","","","","","","","","Feedback","403","2.1.0","312230","67eb09d69af29d8b61649c0d","Prolific","1","","null","","56","2","","null","","","","","","","","","","","","",""
"","","","","","","","","","","","Confidence Rating","404","2.1.0","314182","67eb09d69af29d8b61649c0d","Prolific","1","","1950","","56","2","<h3>Rate your confidence:</h3>
            <div id=""conf1"" class=""conf"" style=""height:25px; width:154px; margin-top:2px; margin-left:15px;""></div>
            <div id=""conf2"" class=""conf"" style=""height:25px; width:154px; margin-top:2px; margin-left:169px;""></div>
            <div id=""conf3"" class=""conf"" style=""height:25px; width:154px; margin-top:2px; margin-left:323px;""></div>
            <div id=""conf4"" class=""conf"" style=""height:25px; width:154px; margin-top:2px; margin-left:477px;""></div>
          <div id=""conf5"" class=""conf"" style=""height:25px; width:154px; margin-top:2px; margin-left:631px;""></div>","6","","","","","","","","","","","","50",""
"","","","","","","","","","","","Summary Trial","405","2.1.0","314182","67eb09d69af29d8b61649c0d","Prolific","1","","546","","56","2","","w","390","313","","","","true","4.3500000000000005","1","","Test","77","","6"
"","","","","","","","","","","","html-keyboard-response","407","2.1.0","315184","67eb09d69af29d8b61649c0d","Prolific","1","","null","","57","2","<p style=""font-size: 70pt;"">+</p>","null","","","","","","","","","","","","",""
"","","","","","","","","","","","Stimulus Presentation","408","2.1.0","315497","67eb09d69af29d8b61649c0d","Prolific","1","","null","","57","2","","null","313","390","313","77","e","false","4.3500000000000005","","","","","",""
"","","","","","","","","","","","Stimulus Response","409","2.1.0","315707","67eb09d69af29d8b61649c0d","Prolific","1","","208","","57","2","","e","","","","","","","","1","","","","",""
"","","","","","","","","","","","Feedback","410","2.1.0","316213","67eb09d69af29d8b61649c0d","Prolific","1","","null","","57","2","","null","","","","","","","","","","","","",""
"","","","","","","","","","","","Confidence Rating","411","2.1.0","318080","67eb09d69af29d8b61649c0d","Prolific","1","","1866","","57","2","<h3>Rate your confidence:</h3>
            <div id=""conf1"" class=""conf"" style=""height:25px; width:154px; margin-top:2px; margin-left:15px;""></div>
            <div id=""conf2"" class=""conf"" style=""height:25px; width:154px; margin-top:2px; margin-left:169px;""></div>
            <div id=""conf3"" class=""conf"" style=""height:25px; width:154px; margin-top:2px; margin-left:323px;""></div>
            <div id=""conf4"" class=""conf"" style=""height:25px; width:154px; margin-top:2px; margin-left:477px;""></div>
          <div id=""conf5"" class=""conf"" style=""height:25px; width:154px; margin-top:2px; margin-left:631px;""></div>","6","","","","","","","","","","","","50",""
"","","","","","","","","","","","Summary Trial","412","2.1.0","318081","67eb09d69af29d8b61649c0d","Prolific","1","","208","","57","2","","e","313","390","","","","false","4.3500000000000005","1","","Test","77","","6"
"","","","","","","","","","","","html-keyboard-response","414","2.1.0","319087","67eb09d69af29d8b61649c0d","Prolific","1","","null","","58","2","<p style=""font-size: 70pt;"">+</p>","null","","","","","","","","","","","","",""
"","","","","","","","","","","","Stimulus Presentation","415","2.1.0","319393","67eb09d69af29d8b61649c0d","Prolific","1","","null","","58","2","","null","383","313","313","70","w","true","4.250000000000001","","","","","",""
"","","","","","","","","","","","Stimulus Response","416","2.1.0","319614","67eb09d69af29d8b61649c0d","Prolific","1","","220","","58","2","","w","","","","","","","","1","","","","",""
"","","","","","","","","","","","Feedback","417","2.1.0","320126","67eb09d69af29d8b61649c0d","Prolific","1","","null","","58","2","","null","","","","","","","","","","","","",""
"","","","","","","","","","","","Confidence Rating","418","2.1.0","321878","67eb09d69af29d8b61649c0d","Prolific","1","","1750","","58","2","<h3>Rate your confidence:</h3>
            <div id=""conf1"" class=""conf"" style=""height:25px; width:154px; margin-top:2px; margin-left:15px;""></div>
            <div id=""conf2"" class=""conf"" style=""height:25px; width:154px; margin-top:2px; margin-left:169px;""></div>
            <div id=""conf3"" class=""conf"" style=""height:25px; width:154px; margin-top:2px; margin-left:323px;""></div>
            <div id=""conf4"" class=""conf"" style=""height:25px; width:154px; margin-top:2px; margin-left:477px;""></div>
          <div id=""conf5"" class=""conf"" style=""height:25px; width:154px; margin-top:2px; margin-left:631px;""></div>","6","","","","","","","","","","","","50",""
"","","","","","","","","","","","Summary Trial","419","2.1.0","321879","67eb09d69af29d8b61649c0d","Prolific","1","","220","","58","2","","w","383","313","","","","true","4.250000000000001","1","","Test","70","","6"
"","","","","","","","","","","","html-keyboard-response","421","2.1.0","322895","67eb09d69af29d8b61649c0d","Prolific","1","","null","","59","2","<p style=""font-size: 70pt;"">+</p>","null","","","","","","","","","","","","",""
"","","","","","","","","","","","Stimulus Presentation","422","2.1.0","323219","67eb09d69af29d8b61649c0d","Prolific","1","","null","","59","2","","null","383","313","313","70","w","true","4.250000000000001","","","","","",""
"","","","","","","","","","","","Stimulus Response","423","2.1.0","323426","67eb09d69af29d8b61649c0d","Prolific","1","","206","","59","2","","w","","","","","","","","1","","","","",""
"","","","","","","","","","","","Feedback","424","2.1.0","323941","67eb09d69af29d8b61649c0d","Prolific","1","","null","","59","2","","null","","","","","","","","","","","","",""
"","","","","","","","","","","","Confidence Rating","425","2.1.0","325634","67eb09d69af29d8b61649c0d","Prolific","1","","1691","","59","2","<h3>Rate your confidence:</h3>
            <div id=""conf1"" class=""conf"" style=""height:25px; width:154px; margin-top:2px; margin-left:15px;""></div>
            <div id=""conf2"" class=""conf"" style=""height:25px; width:154px; margin-top:2px; margin-left:169px;""></div>
            <div id=""conf3"" class=""conf"" style=""height:25px; width:154px; margin-top:2px; margin-left:323px;""></div>
            <div id=""conf4"" class=""conf"" style=""height:25px; width:154px; margin-top:2px; margin-left:477px;""></div>
          <div id=""conf5"" class=""conf"" style=""height:25px; width:154px; margin-top:2px; margin-left:631px;""></div>","6","","","","","","","","","","","","50",""
"","","","","","","","","","","","Summary Trial","426","2.1.0","325635","67eb09d69af29d8b61649c0d","Prolific","1","","206","","59","2","","w","383","313","","","","true","4.250000000000001","1","","Test","70","","6"
"","","","","","","","","","","","html-keyboard-response","428","2.1.0","326642","67eb09d69af29d8b61649c0d","Prolific","1","","null","","60","2","<p style=""font-size: 70pt;"">+</p>","null","","","","","","","","","","","","",""
"","","","","","","","","","","","Stimulus Presentation","429","2.1.0","326953","67eb09d69af29d8b61649c0d","Prolific","1","","null","","60","2","","null","313","376","313","63","e","false","4.150000000000001","","","","","",""
"","","","","","","","","","","","Stimulus Response","430","2.1.0","327172","67eb09d69af29d8b61649c0d","Prolific","1","","219","","60","2","","e","","","","","","","","1","","","","",""
"","","","","","","","","","","","Feedback","431","2.1.0","327680","67eb09d69af29d8b61649c0d","Prolific","1","","null","","60","2","","null","","","","","","","","","","","","",""
"","","","","","","","","","","","Confidence Rating","432","2.1.0","329550","67eb09d69af29d8b61649c0d","Prolific","1","","1868","","60","2","<h3>Rate your confidence:</h3>
            <div id=""conf1"" class=""conf"" style=""height:25px; width:154px; margin-top:2px; margin-left:15px;""></div>
            <div id=""conf2"" class=""conf"" style=""height:25px; width:154px; margin-top:2px; margin-left:169px;""></div>
            <div id=""conf3"" class=""conf"" style=""height:25px; width:154px; margin-top:2px; margin-left:323px;""></div>
            <div id=""conf4"" class=""conf"" style=""height:25px; width:154px; margin-top:2px; margin-left:477px;""></div>
          <div id=""conf5"" class=""conf"" style=""height:25px; width:154px; margin-top:2px; margin-left:631px;""></div>","6","","","","","","","","","","","","50",""
"","","","","","","","","","","","Summary Trial","433","2.1.0","329550","67eb09d69af29d8b61649c0d","Prolific","1","","219","","60","2","","e","313","376","","","","false","4.150000000000001","1","","Test","63","","6"
"","","","","","","","","","","","html-keyboard-response","435","2.1.0","330554","67eb09d69af29d8b61649c0d","Prolific","1","","null","","61","2","<p style=""font-size: 70pt;"">+</p>","null","","","","","","","","","","","","",""
"","","","","","","","","","","","Stimulus Presentation","436","2.1.0","330871","67eb09d69af29d8b61649c0d","Prolific","1","","null","","61","2","","null","376","313","313","63","w","true","4.150000000000001","","","","","",""
"","","","","","","","","","","","Stimulus Response","437","2.1.0","331054","67eb09d69af29d8b61649c0d","Prolific","1","","182","","61","2","","w","","","","","","","","1","","","","",""
"","","","","","","","","","","","Feedback","438","2.1.0","331558","67eb09d69af29d8b61649c0d","Prolific","1","","null","","61","2","","null","","","","","","","","","","","","",""
"","","","","","","","","","","","Confidence Rating","439","2.1.0","334229","67eb09d69af29d8b61649c0d","Prolific","1","","2670","","61","2","<h3>Rate your confidence:</h3>
            <div id=""conf1"" class=""conf"" style=""height:25px; width:154px; margin-top:2px; margin-left:15px;""></div>
            <div id=""conf2"" class=""conf"" style=""height:25px; width:154px; margin-top:2px; margin-left:169px;""></div>
            <div id=""conf3"" class=""conf"" style=""height:25px; width:154px; margin-top:2px; margin-left:323px;""></div>
            <div id=""conf4"" class=""conf"" style=""height:25px; width:154px; margin-top:2px; margin-left:477px;""></div>
          <div id=""conf5"" class=""conf"" style=""height:25px; width:154px; margin-top:2px; margin-left:631px;""></div>","6","","","","","","","","","","","","50",""
"","","","","","","","","","","","Summary Trial","440","2.1.0","334230","67eb09d69af29d8b61649c0d","Prolific","1","","182","","61","2","","w","376","313","","","","true","4.150000000000001","1","","Test","63","","6"
"","","","","","","","","","","","html-keyboard-response","442","2.1.0","335237","67eb09d69af29d8b61649c0d","Prolific","1","","null","","62","2","<p style=""font-size: 70pt;"">+</p>","null","","","","","","","","","","","","",""
"","","","","","","","","","","","Stimulus Presentation","443","2.1.0","335551","67eb09d69af29d8b61649c0d","Prolific","1","","null","","62","2","","null","313","370","313","57","e","false","4.050000000000002","","","","","",""
"","","","","","","","","","","","Stimulus Response","444","2.1.0","335879","67eb09d69af29d8b61649c0d","Prolific","1","","327","","62","2","","e","","","","","","","","1","","","","",""
"","","","","","","","","","","","Feedback","445","2.1.0","336391","67eb09d69af29d8b61649c0d","Prolific","1","","null","","62","2","","null","","","","","","","","","","","","",""
