"width","height","webaudio","browser","browser_version","mobile","os","fullscreen","vsync_rate","webcam","microphone","trial_type","trial_index","plugin_version","time_elapsed","participant_id","Source","condition","success","rt","view_history","trialnum","blocknum","stimulus","response","leftDots","rightDots","baseline","increment","correct_key","target_left","current_log","correct","value","phase","dot_difference","slider_start","confidence"
"1920","945","true","chrome","135.0.0","false","Windows 10","true","61.09","true","true","browser-check","0","2.1.0","991","6617d376619a2b4541498f2c","Prolific","0","","","","","","","","","","","","","","","","","","","",""
"","","","","","","","","","","","fullscreen","1","2.1.0","28472","6617d376619a2b4541498f2c","Prolific","0","true","26461","","","","","","","","","","","","","","","","","",""
"","","","","","","","","","","","instructions","2","2.1.0","43072","6617d376619a2b4541498f2c","Prolific","0","","14597","[{""page_index"":0,""viewing_time"":14597}]","","","","","","","","","","","","","","","","",""
"","","","","","","","","","","","instructions","5","2.1.0","302792","6617d376619a2b4541498f2c","Prolific","0","","259718","[{""page_index"":0,""viewing_time"":246362},{""page_index"":1,""viewing_time"":13356}]","","","","","","","","","","","","","","","","",""
"","","","","","","","","","","","html-keyboard-response","7","2.1.0","303808","6617d376619a2b4541498f2c","Prolific","0","","null","","1","1","<p style=""font-size: 70pt;"">+</p>","null","","","","","","","","","","","","",""
"","","","","","","","","","","","Stimulus Presentation","8","2.1.0","304119","6617d376619a2b4541498f2c","Prolific","0","","null","","1","1","","null","383","313","313","70","w","true","4.25","","","","","",""
"","","","","","","","","","","","Stimulus Response","9","2.1.0","307217","6617d376619a2b4541498f2c","Prolific","0","","3097","","1","1","","w","","","","","","","","1","","","","",""
"","","","","","","","","","","","Feedback","10","2.1.0","307730","6617d376619a2b4541498f2c","Prolific","0","","null","","1","1","","null","","","","","","","","","","","","",""
"","","","","","","","","","","","Summary Trial","12","2.1.0","307753","6617d376619a2b4541498f2c","Prolific","0","","3097","","1","1","","w","383","313","","","","true","4.25","1","","Practice","70","",""
"","","","","","","","","","","","html-keyboard-response","14","2.1.0","308767","6617d376619a2b4541498f2c","Prolific","0","","null","","2","1","<p style=""font-size: 70pt;"">+</p>","null","","","","","","","","","","","","",""
"","","","","","","","","","","","Stimulus Presentation","15","2.1.0","309079","6617d376619a2b4541498f2c","Prolific","0","","null","","2","1","","null","313","383","313","70","e","false","4.25","","","","","",""
"","","","","","","","","","","","Stimulus Response","16","2.1.0","310109","6617d376619a2b4541498f2c","Prolific","0","","1029","","2","1","","e","","","","","","","","1","","","","",""
"","","","","","","","","","","","Feedback","17","2.1.0","310623","6617d376619a2b4541498f2c","Prolific","0","","null","","2","1","","null","","","","","","","","","","","","",""
"","","","","","","","","","","","Summary Trial","19","2.1.0","310624","6617d376619a2b4541498f2c","Prolific","0","","1029","","2","1","","e","313","383","","","","false","4.25","1","","Practice","70","",""
"","","","","","","","","","","","html-keyboard-response","21","2.1.0","311628","6617d376619a2b4541498f2c","Prolific","0","","null","","3","1","<p style=""font-size: 70pt;"">+</p>","null","","","","","","","","","","","","",""
"","","","","","","","","","","","Stimulus Presentation","22","2.1.0","311939","6617d376619a2b4541498f2c","Prolific","0","","null","","3","1","","null","360","313","313","47","w","true","3.85","","","","","",""
"","","","","","","","","","","","Stimulus Response","23","2.1.0","312540","6617d376619a2b4541498f2c","Prolific","0","","599","","3","1","","w","","","","","","","","1","","","","",""
"","","","","","","","","","","","Feedback","24","2.1.0","313048","6617d376619a2b4541498f2c","Prolific","0","","null","","3","1","","null","","","","","","","","","","","","",""
"","","","","","","","","","","","Summary Trial","26","2.1.0","313049","6617d376619a2b4541498f2c","Prolific","0","","599","","3","1","","w","360","313","","","","true","3.85","1","","Practice","47","",""
"","","","","","","","","","","","html-keyboard-response","28","2.1.0","314060","6617d376619a2b4541498f2c","Prolific","0","","null","","4","1","<p style=""font-size: 70pt;"">+</p>","null","","","","","","","","","","","","",""
"","","","","","","","","","","","Stimulus Presentation","29","2.1.0","314373","6617d376619a2b4541498f2c","Prolific","0","","null","","4","1","","null","313","360","313","47","e","false","3.85","","","","","",""
"","","","","","","","","","","","Stimulus Response","30","2.1.0","314983","6617d376619a2b4541498f2c","Prolific","0","","608","","4","1","","e","","","","","","","","1","","","","",""
"","","","","","","","","","","","Feedback","31","2.1.0","315499","6617d376619a2b4541498f2c","Prolific","0","","null","","4","1","","null","","","","","","","","","","","","",""
"","","","","","","","","","","","Summary Trial","33","2.1.0","315500","6617d376619a2b4541498f2c","Prolific","0","","608","","4","1","","e","313","360","","","","false","3.85","1","","Practice","47","",""
"","","","","","","","","","","","html-keyboard-response","35","2.1.0","316508","6617d376619a2b4541498f2c","Prolific","0","","null","","5","1","<p style=""font-size: 70pt;"">+</p>","null","","","","","","","","","","","","",""
"","","","","","","","","","","","Stimulus Presentation","36","2.1.0","316821","6617d376619a2b4541498f2c","Prolific","0","","null","","5","1","","null","345","313","313","32","w","true","3.45","","","","","",""
"","","","","","","","","","","","Stimulus Response","37","2.1.0","317310","6617d376619a2b4541498f2c","Prolific","0","","482","","5","1","","w","","","","","","","","1","","","","",""
"","","","","","","","","","","","Feedback","38","2.1.0","317817","6617d376619a2b4541498f2c","Prolific","0","","null","","5","1","","null","","","","","","","","","","","","",""
"","","","","","","","","","","","Summary Trial","40","2.1.0","317817","6617d376619a2b4541498f2c","Prolific","0","","482","","5","1","","w","345","313","","","","true","3.45","1","","Practice","32","",""
"","","","","","","","","","","","html-keyboard-response","42","2.1.0","318831","6617d376619a2b4541498f2c","Prolific","0","","null","","6","1","<p style=""font-size: 70pt;"">+</p>","null","","","","","","","","","","","","",""
"","","","","","","","","","","","Stimulus Presentation","43","2.1.0","319147","6617d376619a2b4541498f2c","Prolific","0","","null","","6","1","","null","313","345","313","32","e","false","3.45","","","","","",""
"","","","","","","","","","","","Stimulus Response","44","2.1.0","319861","6617d376619a2b4541498f2c","Prolific","0","","713","","6","1","","w","","","","","","","","0","","","","",""
"","","","","","","","","","","","Feedback","45","2.1.0","320372","6617d376619a2b4541498f2c","Prolific","0","","null","","6","1","","null","","","","","","","","","","","","",""
"","","","","","","","","","","","Summary Trial","47","2.1.0","320373","6617d376619a2b4541498f2c","Prolific","0","","713","","6","1","","w","313","345","","","","false","3.45","0","","Practice","32","",""
"","","","","","","","","","","","html-keyboard-response","49","2.1.0","321374","6617d376619a2b4541498f2c","Prolific","0","","null","","7","1","<p style=""font-size: 70pt;"">+</p>","null","","","","","","","","","","","","",""
"","","","","","","","","","","","Stimulus Presentation","50","2.1.0","321693","6617d376619a2b4541498f2c","Prolific","0","","null","","7","1","","null","351","313","313","38","w","true","3.6500000000000004","","","","","",""
"","","","","","","","","","","","Stimulus Response","51","2.1.0","322136","6617d376619a2b4541498f2c","Prolific","0","","441","","7","1","","e","","","","","","","","0","","","","",""
"","","","","","","","","","","","Feedback","52","2.1.0","322640","6617d376619a2b4541498f2c","Prolific","0","","null","","7","1","","null","","","","","","","","","","","","",""
"","","","","","","","","","","","Summary Trial","54","2.1.0","322641","6617d376619a2b4541498f2c","Prolific","0","","441","","7","1","","e","351","313","","","","true","3.6500000000000004","0","","Practice","38","",""
"","","","","","","","","","","","html-keyboard-response","56","2.1.0","323644","6617d376619a2b4541498f2c","Prolific","0","","null","","8","1","<p style=""font-size: 70pt;"">+</p>","null","","","","","","","","","","","","",""
"","","","","","","","","","","","Stimulus Presentation","57","2.1.0","323956","6617d376619a2b4541498f2c","Prolific","0","","null","","8","1","","null","313","360","313","47","e","false","3.8500000000000005","","","","","",""
"","","","","","","","","","","","Stimulus Response","58","2.1.0","324497","6617d376619a2b4541498f2c","Prolific","0","","540","","8","1","","e","","","","","","","","1","","","","",""
"","","","","","","","","","","","Feedback","59","2.1.0","325015","6617d376619a2b4541498f2c","Prolific","0","","null","","8","1","","null","","","","","","","","","","","","",""
"","","","","","","","","","","","Summary Trial","61","2.1.0","325016","6617d376619a2b4541498f2c","Prolific","0","","540","","8","1","","e","313","360","","","","false","3.8500000000000005","1","","Practice","47","",""
"","","","","","","","","","","","html-keyboard-response","63","2.1.0","326028","6617d376619a2b4541498f2c","Prolific","0","","null","","9","1","<p style=""font-size: 70pt;"">+</p>","null","","","","","","","","","","","","",""
"","","","","","","","","","","","Stimulus Presentation","64","2.1.0","326342","6617d376619a2b4541498f2c","Prolific","0","","null","","9","1","","null","313","360","313","47","e","false","3.8500000000000005","","","","","",""
"","","","","","","","","","","","Stimulus Response","65","2.1.0","326934","6617d376619a2b4541498f2c","Prolific","0","","590","","9","1","","w","","","","","","","","0","","","","",""
"","","","","","","","","","","","Feedback","66","2.1.0","327449","6617d376619a2b4541498f2c","Prolific","0","","null","","9","1","","null","","","","","","","","","","","","",""
"","","","","","","","","","","","Summary Trial","68","2.1.0","327450","6617d376619a2b4541498f2c","Prolific","0","","590","","9","1","","w","313","360","","","","false","3.8500000000000005","0","","Practice","47","",""
"","","","","","","","","","","","html-keyboard-response","70","2.1.0","328455","6617d376619a2b4541498f2c","Prolific","0","","null","","10","1","<p style=""font-size: 70pt;"">+</p>","null","","","","","","","","","","","","",""
"","","","","","","","","","","","Stimulus Presentation","71","2.1.0","328774","6617d376619a2b4541498f2c","Prolific","0","","null","","10","1","","null","370","313","313","57","w","true","4.050000000000001","","","","","",""
"","","","","","","","","","","","Stimulus Response","72","2.1.0","329356","6617d376619a2b4541498f2c","Prolific","0","","580","","10","1","","w","","","","","","","","1","","","","",""
"","","","","","","","","","","","Feedback","73","2.1.0","329863","6617d376619a2b4541498f2c","Prolific","0","","null","","10","1","","null","","","","","","","","","","","","",""
"","","","","","","","","","","","Summary Trial","75","2.1.0","329864","6617d376619a2b4541498f2c","Prolific","0","","580","","10","1","","w","370","313","","","","true","4.050000000000001","1","","Practice","57","",""
"","","","","","","","","","","","html-keyboard-response","77","2.1.0","330881","6617d376619a2b4541498f2c","Prolific","0","","null","","11","1","<p style=""font-size: 70pt;"">+</p>","null","","","","","","","","","","","","",""
"","","","","","","","","","","","Stimulus Presentation","78","2.1.0","331197","6617d376619a2b4541498f2c","Prolific","0","","null","","11","1","","null","313","370","313","57","e","false","4.050000000000001","","","","","",""
"","","","","","","","","","","","Stimulus Response","79","2.1.0","331658","6617d376619a2b4541498f2c","Prolific","0","","460","","11","1","","e","","","","","","","","1","","","","",""
"","","","","","","","","","","","Feedback","80","2.1.0","332168","6617d376619a2b4541498f2c","Prolific","0","","null","","11","1","","null","","","","","","","","","","","","",""
"","","","","","","","","","","","Summary Trial","82","2.1.0","332169","6617d376619a2b4541498f2c","Prolific","0","","460","","11","1","","e","313","370","","","","false","4.050000000000001","1","","Practice","57","",""
"","","","","","","","","","","","html-keyboard-response","84","2.1.0","333184","6617d376619a2b4541498f2c","Prolific","0","","null","","12","1","<p style=""font-size: 70pt;"">+</p>","null","","","","","","","","","","","","",""
"","","","","","","","","","","","Stimulus Presentation","85","2.1.0","333497","6617d376619a2b4541498f2c","Prolific","0","","null","","12","1","","null","365","313","313","52","w","true","3.9500000000000006","","","","","",""
"","","","","","","","","","","","Stimulus Response","86","2.1.0","333985","6617d376619a2b4541498f2c","Prolific","0","","487","","12","1","","w","","","","","","","","1","","","","",""
"","","","","","","","","","","","Feedback","87","2.1.0","334500","6617d376619a2b4541498f2c","Prolific","0","","null","","12","1","","null","","","","","","","","","","","","",""
"","","","","","","","","","","","Summary Trial","89","2.1.0","334501","6617d376619a2b4541498f2c","Prolific","0","","487","","12","1","","w","365","313","","","","true","3.9500000000000006","1","","Practice","52","",""
"","","","","","","","","","","","html-keyboard-response","91","2.1.0","335507","6617d376619a2b4541498f2c","Prolific","0","","null","","13","1","<p style=""font-size: 70pt;"">+</p>","null","","","","","","","","","","","","",""
"","","","","","","","","","","","Stimulus Presentation","92","2.1.0","335816","6617d376619a2b4541498f2c","Prolific","0","","null","","13","1","","null","313","365","313","52","e","false","3.9500000000000006","","","","","",""
"","","","","","","","","","","","Stimulus Response","93","2.1.0","336390","6617d376619a2b4541498f2c","Prolific","0","","572","","13","1","","e","","","","","","","","1","","","","",""
"","","","","","","","","","","","Feedback","94","2.1.0","336913","6617d376619a2b4541498f2c","Prolific","0","","null","","13","1","","null","","","","","","","","","","","","",""
"","","","","","","","","","","","Summary Trial","96","2.1.0","336914","6617d376619a2b4541498f2c","Prolific","0","","572","","13","1","","e","313","365","","","","false","3.9500000000000006","1","","Practice","52","",""
"","","","","","","","","","","","html-keyboard-response","98","2.1.0","337929","6617d376619a2b4541498f2c","Prolific","0","","null","","14","1","<p style=""font-size: 70pt;"">+</p>","null","","","","","","","","","","","","",""
"","","","","","","","","","","","Stimulus Presentation","99","2.1.0","338247","6617d376619a2b4541498f2c","Prolific","0","","null","","14","1","","null","360","313","313","47","w","true","3.8500000000000005","","","","","",""
"","","","","","","","","","","","Stimulus Response","100","2.1.0","338761","6617d376619a2b4541498f2c","Prolific","0","","513","","14","1","","w","","","","","","","","1","","","","",""
"","","","","","","","","","","","Feedback","101","2.1.0","339273","6617d376619a2b4541498f2c","Prolific","0","","null","","14","1","","null","","","","","","","","","","","","",""
"","","","","","","","","","","","Summary Trial","103","2.1.0","339273","6617d376619a2b4541498f2c","Prolific","0","","513","","14","1","","w","360","313","","","","true","3.8500000000000005","1","","Practice","47","",""
"","","","","","","","","","","","html-keyboard-response","105","2.1.0","340290","6617d376619a2b4541498f2c","Prolific","0","","null","","15","1","<p style=""font-size: 70pt;"">+</p>","null","","","","","","","","","","","","",""
"","","","","","","","","","","","Stimulus Presentation","106","2.1.0","340596","6617d376619a2b4541498f2c","Prolific","0","","null","","15","1","","null","360","313","313","47","w","true","3.8500000000000005","","","","","",""
"","","","","","","","","","","","Stimulus Response","107","2.1.0","341224","6617d376619a2b4541498f2c","Prolific","0","","627","","15","1","","w","","","","","","","","1","","","","",""
"","","","","","","","","","","","Feedback","108","2.1.0","341732","6617d376619a2b4541498f2c","Prolific","0","","null","","15","1","","null","","","","","","","","","","","","",""
"","","","","","","","","","","","Summary Trial","110","2.1.0","341732","6617d376619a2b4541498f2c","Prolific","0","","627","","15","1","","w","360","313","","","","true","3.8500000000000005","1","","Practice","47","",""
"","","","","","","","","","","","html-keyboard-response","112","2.1.0","342750","6617d376619a2b4541498f2c","Prolific","0","","null","","16","1","<p style=""font-size: 70pt;"">+</p>","null","","","","","","","","","","","","",""
"","","","","","","","","","","","Stimulus Presentation","113","2.1.0","343059","6617d376619a2b4541498f2c","Prolific","0","","null","","16","1","","null","313","356","313","43","e","false","3.7500000000000004","","","","","",""
"","","","","","","","","","","","Stimulus Response","114","2.1.0","343497","6617d376619a2b4541498f2c","Prolific","0","","437","","16","1","","e","","","","","","","","1","","","","",""
"","","","","","","","","","","","Feedback","115","2.1.0","344002","6617d376619a2b4541498f2c","Prolific","0","","null","","16","1","","null","","","","","","","","","","","","",""
"","","","","","","","","","","","Summary Trial","117","2.1.0","344002","6617d376619a2b4541498f2c","Prolific","0","","437","","16","1","","e","313","356","","","","false","3.7500000000000004","1","","Practice","43","",""
"","","","","","","","","","","","html-keyboard-response","119","2.1.0","345006","6617d376619a2b4541498f2c","Prolific","0","","null","","17","1","<p style=""font-size: 70pt;"">+</p>","null","","","","","","","","","","","","",""
"","","","","","","","","","","","Stimulus Presentation","120","2.1.0","345329","6617d376619a2b4541498f2c","Prolific","0","","null","","17","1","","null","356","313","313","43","w","true","3.7500000000000004","","","","","",""
"","","","","","","","","","","","Stimulus Response","121","2.1.0","346050","6617d376619a2b4541498f2c","Prolific","0","","719","","17","1","","w","","","","","","","","1","","","","",""
"","","","","","","","","","","","Feedback","122","2.1.0","346567","6617d376619a2b4541498f2c","Prolific","0","","null","","17","1","","null","","","","","","","","","","","","",""
"","","","","","","","","","","","Summary Trial","124","2.1.0","346567","6617d376619a2b4541498f2c","Prolific","0","","719","","17","1","","w","356","313","","","","true","3.7500000000000004","1","","Practice","43","",""
"","","","","","","","","","","","html-keyboard-response","126","2.1.0","347572","6617d376619a2b4541498f2c","Prolific","0","","null","","18","1","<p style=""font-size: 70pt;"">+</p>","null","","","","","","","","","","","","",""
"","","","","","","","","","","","Stimulus Presentation","127","2.1.0","347875","6617d376619a2b4541498f2c","Prolific","0","","null","","18","1","","null","313","351","313","38","e","false","3.6500000000000004","","","","","",""
"","","","","","","","","","","","Stimulus Response","128","2.1.0","348345","6617d376619a2b4541498f2c","Prolific","0","","468","","18","1","","e","","","","","","","","1","","","","",""
"","","","","","","","","","","","Feedback","129","2.1.0","348864","6617d376619a2b4541498f2c","Prolific","0","","null","","18","1","","null","","","","","","","","","","","","",""
"","","","","","","","","","","","Summary Trial","131","2.1.0","348865","6617d376619a2b4541498f2c","Prolific","0","","468","","18","1","","e","313","351","","","","false","3.6500000000000004","1","","Practice","38","",""
"","","","","","","","","","","","html-keyboard-response","133","2.1.0","349877","6617d376619a2b4541498f2c","Prolific","0","","null","","19","1","<p style=""font-size: 70pt;"">+</p>","null","","","","","","","","","","","","",""
"","","","","","","","","","","","Stimulus Presentation","134","2.1.0","350186","6617d376619a2b4541498f2c","Prolific","0","","null","","19","1","","null","351","313","313","38","w","true","3.6500000000000004","","","","","",""
"","","","","","","","","","","","Stimulus Response","135","2.1.0","350657","6617d376619a2b4541498f2c","Prolific","0","","469","","19","1","","w","","","","","","","","1","","","","",""
"","","","","","","","","","","","Feedback","136","2.1.0","351169","6617d376619a2b4541498f2c","Prolific","0","","null","","19","1","","null","","","","","","","","","","","","",""
"","","","","","","","","","","","Summary Trial","138","2.1.0","351170","6617d376619a2b4541498f2c","Prolific","0","","469","","19","1","","w","351","313","","","","true","3.6500000000000004","1","","Practice","38","",""
"","","","","","","","","","","","html-keyboard-response","140","2.1.0","352182","6617d376619a2b4541498f2c","Prolific","0","","null","","20","1","<p style=""font-size: 70pt;"">+</p>","null","","","","","","","","","","","","",""
"","","","","","","","","","","","Stimulus Presentation","141","2.1.0","352496","6617d376619a2b4541498f2c","Prolific","0","","null","","20","1","","null","313","348","313","35","e","false","3.5500000000000003","","","","","",""
"","","","","","","","","","","","Stimulus Response","142","2.1.0","352890","6617d376619a2b4541498f2c","Prolific","0","","392","","20","1","","e","","","","","","","","1","","","","",""
"","","","","","","","","","","","Feedback","143","2.1.0","353402","6617d376619a2b4541498f2c","Prolific","0","","null","","20","1","","null","","","","","","","","","","","","",""
"","","","","","","","","","","","Summary Trial","145","2.1.0","353403","6617d376619a2b4541498f2c","Prolific","0","","392","","20","1","","e","313","348","","","","false","3.5500000000000003","1","","Practice","35","",""
"","","","","","","","","","","","html-keyboard-response","147","2.1.0","354416","6617d376619a2b4541498f2c","Prolific","0","","null","","21","1","<p style=""font-size: 70pt;"">+</p>","null","","","","","","","","","","","","",""
"","","","","","","","","","","","Stimulus Presentation","148","2.1.0","354727","6617d376619a2b4541498f2c","Prolific","0","","null","","21","1","","null","348","313","313","35","w","true","3.5500000000000003","","","","","",""
"","","","","","","","","","","","Stimulus Response","149","2.1.0","355017","6617d376619a2b4541498f2c","Prolific","0","","289","","21","1","","w","","","","","","","","1","","","","",""
"","","","","","","","","","","","Feedback","150","2.1.0","355528","6617d376619a2b4541498f2c","Prolific","0","","null","","21","1","","null","","","","","","","","","","","","",""
"","","","","","","","","","","","Summary Trial","152","2.1.0","355528","6617d376619a2b4541498f2c","Prolific","0","","289","","21","1","","w","348","313","","","","true","3.5500000000000003","1","","Practice","35","",""
"","","","","","","","","","","","html-keyboard-response","154","2.1.0","356543","6617d376619a2b4541498f2c","Prolific","0","","null","","22","1","<p style=""font-size: 70pt;"">+</p>","null","","","","","","","","","","","","",""
"","","","","","","","","","","","Stimulus Presentation","155","2.1.0","356863","6617d376619a2b4541498f2c","Prolific","0","","null","","22","1","","null","313","345","313","32","e","false","3.45","","","","","",""
"","","","","","","","","","","","Stimulus Response","156","2.1.0","357146","6617d376619a2b4541498f2c","Prolific","0","","281","","22","1","","e","","","","","","","","1","","","","",""
"","","","","","","","","","","","Feedback","157","2.1.0","357660","6617d376619a2b4541498f2c","Prolific","0","","null","","22","1","","null","","","","","","","","","","","","",""
"","","","","","","","","","","","Summary Trial","159","2.1.0","357660","6617d376619a2b4541498f2c","Prolific","0","","281","","22","1","","e","313","345","","","","false","3.45","1","","Practice","32","",""
"","","","","","","","","","","","html-keyboard-response","161","2.1.0","358663","6617d376619a2b4541498f2c","Prolific","0","","null","","23","1","<p style=""font-size: 70pt;"">+</p>","null","","","","","","","","","","","","",""
"","","","","","","","","","","","Stimulus Presentation","162","2.1.0","358973","6617d376619a2b4541498f2c","Prolific","0","","null","","23","1","","null","345","313","313","32","w","true","3.45","","","","","",""
"","","","","","","","","","","","Stimulus Response","163","2.1.0","359441","6617d376619a2b4541498f2c","Prolific","0","","467","","23","1","","w","","","","","","","","1","","","","",""
"","","","","","","","","","","","Feedback","164","2.1.0","359963","6617d376619a2b4541498f2c","Prolific","0","","null","","23","1","","null","","","","","","","","","","","","",""
"","","","","","","","","","","","Summary Trial","166","2.1.0","359963","6617d376619a2b4541498f2c","Prolific","0","","467","","23","1","","w","345","313","","","","true","3.45","1","","Practice","32","",""
"","","","","","","","","","","","html-keyboard-response","168","2.1.0","360974","6617d376619a2b4541498f2c","Prolific","0","","null","","24","1","<p style=""font-size: 70pt;"">+</p>","null","","","","","","","","","","","","",""
"","","","","","","","","","","","Stimulus Presentation","169","2.1.0","361286","6617d376619a2b4541498f2c","Prolific","0","","null","","24","1","","null","313","342","313","29","e","false","3.35","","","","","",""
"","","","","","","","","","","","Stimulus Response","170","2.1.0","361845","6617d376619a2b4541498f2c","Prolific","0","","557","","24","1","","e","","","","","","","","1","","","","",""
"","","","","","","","","","","","Feedback","171","2.1.0","362359","6617d376619a2b4541498f2c","Prolific","0","","null","","24","1","","null","","","","","","","","","","","","",""
"","","","","","","","","","","","Summary Trial","173","2.1.0","362360","6617d376619a2b4541498f2c","Prolific","0","","557","","24","1","","e","313","342","","","","false","3.35","1","","Practice","29","",""
"","","","","","","","","","","","html-keyboard-response","175","2.1.0","363373","6617d376619a2b4541498f2c","Prolific","0","","null","","25","1","<p style=""font-size: 70pt;"">+</p>","null","","","","","","","","","","","","",""
"","","","","","","","","","","","Stimulus Presentation","176","2.1.0","363681","6617d376619a2b4541498f2c","Prolific","0","","null","","25","1","","null","313","342","313","29","e","false","3.35","","","","","",""
"","","","","","","","","","","","Stimulus Response","177","2.1.0","364060","6617d376619a2b4541498f2c","Prolific","0","","378","","25","1","","e","","","","","","","","1","","","","",""
"","","","","","","","","","","","Feedback","178","2.1.0","364571","6617d376619a2b4541498f2c","Prolific","0","","null","","25","1","","null","","","","","","","","","","","","",""
"","","","","","","","","","","","Summary Trial","180","2.1.0","364571","6617d376619a2b4541498f2c","Prolific","0","","378","","25","1","","e","313","342","","","","false","3.35","1","","Practice","29","",""
"","","","","","","","","","","","html-keyboard-response","182","2.1.0","365588","6617d376619a2b4541498f2c","Prolific","0","","null","","26","1","<p style=""font-size: 70pt;"">+</p>","null","","","","","","","","","","","","",""
"","","","","","","","","","","","Stimulus Presentation","183","2.1.0","365896","6617d376619a2b4541498f2c","Prolific","0","","null","","26","1","","null","339","313","313","26","w","true","3.25","","","","","",""
"","","","","","","","","","","","Stimulus Response","184","2.1.0","366273","6617d376619a2b4541498f2c","Prolific","0","","376","","26","1","","w","","","","","","","","1","","","","",""
"","","","","","","","","","","","Feedback","185","2.1.0","366780","6617d376619a2b4541498f2c","Prolific","0","","null","","26","1","","null","","","","","","","","","","","","",""
"","","","","","","","","","","","Summary Trial","187","2.1.0","366781","6617d376619a2b4541498f2c","Prolific","0","","376","","26","1","","w","339","313","","","","true","3.25","1","","Practice","26","",""
"","","","","","","","","","","","instructions","188","2.1.0","381271","6617d376619a2b4541498f2c","Prolific","0","","14488","[{""page_index"":0,""viewing_time"":14488}]","","","","","","","","","","","","","","","","",""
"","","","","","","","","","","","Confidence Rating","189","2.1.0","393799","6617d376619a2b4541498f2c","Prolific","0","","12526","","","","A rating scale as shown below is used throughout the task. 
        You will select any point with your mouse.<br>Choose any point on the 
          scale and click &apos;Submit&apos; to continue.<br><br>
            <div id=""conf1"" class=""conf"" style=""height:25px; width:154px; margin-top:2px; margin-left:15px;""></div>
            <div id=""conf2"" class=""conf"" style=""height:25px; width:154px; margin-top:2px; margin-left:169px;""></div>
            <div id=""conf3"" class=""conf"" style=""height:25px; width:154px; margin-top:2px; margin-left:323px;""></div>
            <div id=""conf4"" class=""conf"" style=""height:25px; width:154px; margin-top:2px; margin-left:477px;""></div>
     <div id=""conf5"" class=""conf"" style=""height:25px; width:154px; margin-top:2px; margin-left:631px;""></div>","4","","","","","","","","","","","","50",""
"","","","","","","","","","","","Confidence Rating","190","2.1.0","399105","6617d376619a2b4541498f2c","Prolific","0","","5304","","","","During the task, if you are <strong>very sure</strong> that you made the correct judgement, you should respond <strong>&apos;Certain&apos;</strong><br><br>
            <div id=""conf1"" class=""conf"" style=""height:25px; width:154px; margin-top:2px; margin-left:15px;""></div>
            <div id=""conf2"" class=""conf"" style=""height:25px; width:154px; margin-top:2px; margin-left:169px;""></div>
            <div id=""conf3"" class=""conf"" style=""height:25px; width:154px; margin-top:2px; margin-left:323px;""></div>
            <div id=""conf4"" class=""conf"" style=""height:25px; width:154px; margin-top:2px; margin-left:477px;""></div>
   <div id=""conf5"" class=""conf"" style=""height:25px; width:154px; margin-top:2px; margin-left:631px;""></div>","6","","","","","","","","","","","","50",""
"","","","","","","","","","","","Confidence Rating","191","2.1.0","401482","6617d376619a2b4541498f2c","Prolific","0","","2374","","","","If you are <strong>very unsure</strong> you made the correct judgement, you should respond <strong>&apos;Guessing&apos;</strong><br><br>
            <div id=""conf1"" class=""conf"" style=""height:25px; width:154px; margin-top:2px; margin-left:15px;""></div>
            <div id=""conf2"" class=""conf"" style=""height:25px; width:154px; margin-top:2px; margin-left:169px;""></div>
            <div id=""conf3"" class=""conf"" style=""height:25px; width:154px; margin-top:2px; margin-left:323px;""></div>
            <div id=""conf4"" class=""conf"" style=""height:25px; width:154px; margin-top:2px; margin-left:477px;""></div>
 <div id=""conf5"" class=""conf"" style=""height:25px; width:154px; margin-top:2px; margin-left:631px;""></div>","1","","","","","","","","","","","","1",""
"","","","","","","","","","","","Confidence Rating","192","2.1.0","404948","6617d376619a2b4541498f2c","Prolific","0","","3463","","","","If you are <strong>somewhat sure</strong> about being correct, you should select a rating between the two descriptions.<br><br>
            <div id=""conf1"" class=""conf"" style=""height:25px; width:154px; margin-top:2px; margin-left:15px;""></div>
            <div id=""conf2"" class=""conf"" style=""height:25px; width:154px; margin-top:2px; margin-left:169px;""></div>
            <div id=""conf3"" class=""conf"" style=""height:25px; width:154px; margin-top:2px; margin-left:323px;""></div>
            <div id=""conf4"" class=""conf"" style=""height:25px; width:154px; margin-top:2px; margin-left:477px;""></div>
 <div id=""conf5"" class=""conf"" style=""height:25px; width:154px; margin-top:2px; margin-left:631px;""></div>","4","","","","","","","","","","","","4",""
"","","","","","","","","","","","Confidence Rating","193","2.1.0","421902","6617d376619a2b4541498f2c","Prolific","0","","16951","","","","If you understand how to use and take advantage of the whole rating scale, choose any point on the rating scale and click &apos;Submit&apos; to continue.<br><br>
            <div id=""conf1"" class=""conf"" style=""height:25px; width:154px; margin-top:2px; margin-left:15px;""></div>
            <div id=""conf2"" class=""conf"" style=""height:25px; width:154px; margin-top:2px; margin-left:169px;""></div>
            <div id=""conf3"" class=""conf"" style=""height:25px; width:154px; margin-top:2px; margin-left:323px;""></div>
            <div id=""conf4"" class=""conf"" style=""height:25px; width:154px; margin-top:2px; margin-left:477px;""></div>
 <div id=""conf5"" class=""conf"" style=""height:25px; width:154px; margin-top:2px; margin-left:631px;""></div>","4","","","","","","","","","","","","50",""
"","","","","","","","","","","","instructions","194","2.1.0","432097","6617d376619a2b4541498f2c","Prolific","0","","10194","[{""page_index"":0,""viewing_time"":10194}]","","","","","","","","","","","","","","","","",""
"","","","","","","","","","","","instructions","195","2.1.0","435259","6617d376619a2b4541498f2c","Prolific","0","","3161","[{""page_index"":0,""viewing_time"":3161}]","","","","","","","","","","","","","","","","",""
"","","","","","","","","","","","html-keyboard-response","197","2.1.0","436264","6617d376619a2b4541498f2c","Prolific","0","","null","","27","2","<p style=""font-size: 70pt;"">+</p>","null","","","","","","","","","","","","",""
"","","","","","","","","","","","Stimulus Presentation","198","2.1.0","436589","6617d376619a2b4541498f2c","Prolific","0","","null","","27","2","","null","339","313","313","26","w","true","3.25","","","","","",""
"","","","","","","","","","","","Stimulus Response","199","2.1.0","437094","6617d376619a2b4541498f2c","Prolific","0","","504","","27","2","","w","","","","","","","","1","","","","",""
"","","","","","","","","","","","Feedback","200","2.1.0","437604","6617d376619a2b4541498f2c","Prolific","0","","null","","27","2","","null","","","","","","","","","","","","",""
"","","","","","","","","","","","Confidence Rating","201","2.1.0","441636","6617d376619a2b4541498f2c","Prolific","0","","4030","","27","2","<h3>Rate your confidence:</h3>
            <div id=""conf1"" class=""conf"" style=""height:25px; width:154px; margin-top:2px; margin-left:15px;""></div>
            <div id=""conf2"" class=""conf"" style=""height:25px; width:154px; margin-top:2px; margin-left:169px;""></div>
            <div id=""conf3"" class=""conf"" style=""height:25px; width:154px; margin-top:2px; margin-left:323px;""></div>
            <div id=""conf4"" class=""conf"" style=""height:25px; width:154px; margin-top:2px; margin-left:477px;""></div>
          <div id=""conf5"" class=""conf"" style=""height:25px; width:154px; margin-top:2px; margin-left:631px;""></div>","4","","","","","","","","","","","","50",""
"","","","","","","","","","","","Summary Trial","202","2.1.0","441638","6617d376619a2b4541498f2c","Prolific","0","","504","","27","2","","w","339","313","","","","true","3.25","1","","Test","26","","4"
"","","","","","","","","","","","html-keyboard-response","204","2.1.0","442641","6617d376619a2b4541498f2c","Prolific","0","","null","","28","2","<p style=""font-size: 70pt;"">+</p>","null","","","","","","","","","","","","",""
"","","","","","","","","","","","Stimulus Presentation","205","2.1.0","442948","6617d376619a2b4541498f2c","Prolific","0","","null","","28","2","","null","313","336","313","23","e","false","3.15","","","","","",""
"","","","","","","","","","","","Stimulus Response","206","2.1.0","443596","6617d376619a2b4541498f2c","Prolific","0","","646","","28","2","","e","","","","","","","","1","","","","",""
"","","","","","","","","","","","Feedback","207","2.1.0","444114","6617d376619a2b4541498f2c","Prolific","0","","null","","28","2","","null","","","","","","","","","","","","",""
"","","","","","","","","","","","Confidence Rating","208","2.1.0","447058","6617d376619a2b4541498f2c","Prolific","0","","2943","","28","2","<h3>Rate your confidence:</h3>
            <div id=""conf1"" class=""conf"" style=""height:25px; width:154px; margin-top:2px; margin-left:15px;""></div>
            <div id=""conf2"" class=""conf"" style=""height:25px; width:154px; margin-top:2px; margin-left:169px;""></div>
            <div id=""conf3"" class=""conf"" style=""height:25px; width:154px; margin-top:2px; margin-left:323px;""></div>
            <div id=""conf4"" class=""conf"" style=""height:25px; width:154px; margin-top:2px; margin-left:477px;""></div>
          <div id=""conf5"" class=""conf"" style=""height:25px; width:154px; margin-top:2px; margin-left:631px;""></div>","3","","","","","","","","","","","","50",""
"","","","","","","","","","","","Summary Trial","209","2.1.0","447059","6617d376619a2b4541498f2c","Prolific","0","","646","","28","2","","e","313","336","","","","false","3.15","1","","Test","23","","3"
"","","","","","","","","","","","html-keyboard-response","211","2.1.0","448076","6617d376619a2b4541498f2c","Prolific","0","","null","","29","2","<p style=""font-size: 70pt;"">+</p>","null","","","","","","","","","","","","",""
"","","","","","","","","","","","Stimulus Presentation","212","2.1.0","448379","6617d376619a2b4541498f2c","Prolific","0","","null","","29","2","","null","313","336","313","23","e","false","3.15","","","","","",""
"","","","","","","","","","","","Stimulus Response","213","2.1.0","448783","6617d376619a2b4541498f2c","Prolific","0","","402","","29","2","","e","","","","","","","","1","","","","",""
"","","","","","","","","","","","Feedback","214","2.1.0","449285","6617d376619a2b4541498f2c","Prolific","0","","null","","29","2","","null","","","","","","","","","","","","",""
"","","","","","","","","","","","Confidence Rating","215","2.1.0","451789","6617d376619a2b4541498f2c","Prolific","0","","2502","","29","2","<h3>Rate your confidence:</h3>
            <div id=""conf1"" class=""conf"" style=""height:25px; width:154px; margin-top:2px; margin-left:15px;""></div>
            <div id=""conf2"" class=""conf"" style=""height:25px; width:154px; margin-top:2px; margin-left:169px;""></div>
            <div id=""conf3"" class=""conf"" style=""height:25px; width:154px; margin-top:2px; margin-left:323px;""></div>
            <div id=""conf4"" class=""conf"" style=""height:25px; width:154px; margin-top:2px; margin-left:477px;""></div>
          <div id=""conf5"" class=""conf"" style=""height:25px; width:154px; margin-top:2px; margin-left:631px;""></div>","4","","","","","","","","","","","","50",""
"","","","","","","","","","","","Summary Trial","216","2.1.0","451790","6617d376619a2b4541498f2c","Prolific","0","","402","","29","2","","e","313","336","","","","false","3.15","1","","Test","23","","4"
"","","","","","","","","","","","html-keyboard-response","218","2.1.0","452803","6617d376619a2b4541498f2c","Prolific","0","","null","","30","2","<p style=""font-size: 70pt;"">+</p>","null","","","","","","","","","","","","",""
"","","","","","","","","","","","Stimulus Presentation","219","2.1.0","453119","6617d376619a2b4541498f2c","Prolific","0","","null","","30","2","","null","334","313","313","21","w","true","3.05","","","","","",""
"","","","","","","","","","","","Stimulus Response","220","2.1.0","453544","6617d376619a2b4541498f2c","Prolific","0","","423","","30","2","","w","","","","","","","","1","","","","",""
"","","","","","","","","","","","Feedback","221","2.1.0","454058","6617d376619a2b4541498f2c","Prolific","0","","null","","30","2","","null","","","","","","","","","","","","",""
"","","","","","","","","","","","Confidence Rating","222","2.1.0","456159","6617d376619a2b4541498f2c","Prolific","0","","2099","","30","2","<h3>Rate your confidence:</h3>
            <div id=""conf1"" class=""conf"" style=""height:25px; width:154px; margin-top:2px; margin-left:15px;""></div>
            <div id=""conf2"" class=""conf"" style=""height:25px; width:154px; margin-top:2px; margin-left:169px;""></div>
            <div id=""conf3"" class=""conf"" style=""height:25px; width:154px; margin-top:2px; margin-left:323px;""></div>
            <div id=""conf4"" class=""conf"" style=""height:25px; width:154px; margin-top:2px; margin-left:477px;""></div>
          <div id=""conf5"" class=""conf"" style=""height:25px; width:154px; margin-top:2px; margin-left:631px;""></div>","4","","","","","","","","","","","","50",""
"","","","","","","","","","","","Summary Trial","223","2.1.0","456160","6617d376619a2b4541498f2c","Prolific","0","","423","","30","2","","w","334","313","","","","true","3.05","1","","Test","21","","4"
"","","","","","","","","","","","html-keyboard-response","225","2.1.0","457167","6617d376619a2b4541498f2c","Prolific","0","","null","","31","2","<p style=""font-size: 70pt;"">+</p>","null","","","","","","","","","","","","",""
"","","","","","","","","","","","Stimulus Presentation","226","2.1.0","457485","6617d376619a2b4541498f2c","Prolific","0","","null","","31","2","","null","313","334","313","21","e","false","3.05","","","","","",""
"","","","","","","","","","","","Stimulus Response","227","2.1.0","458253","6617d376619a2b4541498f2c","Prolific","0","","766","","31","2","","e","","","","","","","","1","","","","",""
"","","","","","","","","","","","Feedback","228","2.1.0","458766","6617d376619a2b4541498f2c","Prolific","0","","null","","31","2","","null","","","","","","","","","","","","",""
"","","","","","","","","","","","Confidence Rating","229","2.1.0","460938","6617d376619a2b4541498f2c","Prolific","0","","2170","","31","2","<h3>Rate your confidence:</h3>
            <div id=""conf1"" class=""conf"" style=""height:25px; width:154px; margin-top:2px; margin-left:15px;""></div>
            <div id=""conf2"" class=""conf"" style=""height:25px; width:154px; margin-top:2px; margin-left:169px;""></div>
            <div id=""conf3"" class=""conf"" style=""height:25px; width:154px; margin-top:2px; margin-left:323px;""></div>
            <div id=""conf4"" class=""conf"" style=""height:25px; width:154px; margin-top:2px; margin-left:477px;""></div>
          <div id=""conf5"" class=""conf"" style=""height:25px; width:154px; margin-top:2px; margin-left:631px;""></div>","4","","","","","","","","","","","","50",""
"","","","","","","","","","","","Summary Trial","230","2.1.0","460939","6617d376619a2b4541498f2c","Prolific","0","","766","","31","2","","e","313","334","","","","false","3.05","1","","Test","21","","4"
"","","","","","","","","","","","html-keyboard-response","232","2.1.0","461952","6617d376619a2b4541498f2c","Prolific","0","","null","","32","2","<p style=""font-size: 70pt;"">+</p>","null","","","","","","","","","","","","",""
"","","","","","","","","","","","Stimulus Presentation","233","2.1.0","462263","6617d376619a2b4541498f2c","Prolific","0","","null","","32","2","","null","332","313","313","19","w","true","2.9499999999999997","","","","","",""
"","","","","","","","","","","","Stimulus Response","234","2.1.0","462687","6617d376619a2b4541498f2c","Prolific","0","","423","","32","2","","e","","","","","","","","0","","","","",""
"","","","","","","","","","","","Feedback","235","2.1.0","463197","6617d376619a2b4541498f2c","Prolific","0","","null","","32","2","","null","","","","","","","","","","","","",""
"","","","","","","","","","","","Confidence Rating","236","2.1.0","465590","6617d376619a2b4541498f2c","Prolific","0","","2391","","32","2","<h3>Rate your confidence:</h3>
            <div id=""conf1"" class=""conf"" style=""height:25px; width:154px; margin-top:2px; margin-left:15px;""></div>
            <div id=""conf2"" class=""conf"" style=""height:25px; width:154px; margin-top:2px; margin-left:169px;""></div>
            <div id=""conf3"" class=""conf"" style=""height:25px; width:154px; margin-top:2px; margin-left:323px;""></div>
            <div id=""conf4"" class=""conf"" style=""height:25px; width:154px; margin-top:2px; margin-left:477px;""></div>
          <div id=""conf5"" class=""conf"" style=""height:25px; width:154px; margin-top:2px; margin-left:631px;""></div>","4","","","","","","","","","","","","50",""
"","","","","","","","","","","","Summary Trial","237","2.1.0","465591","6617d376619a2b4541498f2c","Prolific","0","","423","","32","2","","e","332","313","","","","true","2.9499999999999997","0","","Test","19","","4"
"","","","","","","","","","","","html-keyboard-response","239","2.1.0","466594","6617d376619a2b4541498f2c","Prolific","0","","null","","33","2","<p style=""font-size: 70pt;"">+</p>","null","","","","","","","","","","","","",""
"","","","","","","","","","","","Stimulus Presentation","240","2.1.0","466898","6617d376619a2b4541498f2c","Prolific","0","","null","","33","2","","null","334","313","313","21","w","true","3.05","","","","","",""
"","","","","","","","","","","","Stimulus Response","241","2.1.0","467489","6617d376619a2b4541498f2c","Prolific","0","","590","","33","2","","w","","","","","","","","1","","","","",""
"","","","","","","","","","","","Feedback","242","2.1.0","468005","6617d376619a2b4541498f2c","Prolific","0","","null","","33","2","","null","","","","","","","","","","","","",""
"","","","","","","","","","","","Confidence Rating","243","2.1.0","470743","6617d376619a2b4541498f2c","Prolific","0","","2736","","33","2","<h3>Rate your confidence:</h3>
            <div id=""conf1"" class=""conf"" style=""height:25px; width:154px; margin-top:2px; margin-left:15px;""></div>
            <div id=""conf2"" class=""conf"" style=""height:25px; width:154px; margin-top:2px; margin-left:169px;""></div>
            <div id=""conf3"" class=""conf"" style=""height:25px; width:154px; margin-top:2px; margin-left:323px;""></div>
            <div id=""conf4"" class=""conf"" style=""height:25px; width:154px; margin-top:2px; margin-left:477px;""></div>
          <div id=""conf5"" class=""conf"" style=""height:25px; width:154px; margin-top:2px; margin-left:631px;""></div>","3","","","","","","","","","","","","50",""
"","","","","","","","","","","","Summary Trial","244","2.1.0","470744","6617d376619a2b4541498f2c","Prolific","0","","590","","33","2","","w","334","313","","","","true","3.05","1","","Test","21","","3"
"","","","","","","","","","","","html-keyboard-response","246","2.1.0","471760","6617d376619a2b4541498f2c","Prolific","0","","null","","34","2","<p style=""font-size: 70pt;"">+</p>","null","","","","","","","","","","","","",""
"","","","","","","","","","","","Stimulus Presentation","247","2.1.0","472070","6617d376619a2b4541498f2c","Prolific","0","","null","","34","2","","null","313","334","313","21","e","false","3.05","","","","","",""
"","","","","","","","","","","","Stimulus Response","248","2.1.0","472421","6617d376619a2b4541498f2c","Prolific","0","","350","","34","2","","e","","","","","","","","1","","","","",""
"","","","","","","","","","","","Feedback","249","2.1.0","472932","6617d376619a2b4541498f2c","Prolific","0","","null","","34","2","","null","","","","","","","","","","","","",""
"","","","","","","","","","","","Confidence Rating","250","2.1.0","474893","6617d376619a2b4541498f2c","Prolific","0","","1959","","34","2","<h3>Rate your confidence:</h3>
            <div id=""conf1"" class=""conf"" style=""height:25px; width:154px; margin-top:2px; margin-left:15px;""></div>
            <div id=""conf2"" class=""conf"" style=""height:25px; width:154px; margin-top:2px; margin-left:169px;""></div>
            <div id=""conf3"" class=""conf"" style=""height:25px; width:154px; margin-top:2px; margin-left:323px;""></div>
            <div id=""conf4"" class=""conf"" style=""height:25px; width:154px; margin-top:2px; margin-left:477px;""></div>
          <div id=""conf5"" class=""conf"" style=""height:25px; width:154px; margin-top:2px; margin-left:631px;""></div>","4","","","","","","","","","","","","50",""
"","","","","","","","","","","","Summary Trial","251","2.1.0","474894","6617d376619a2b4541498f2c","Prolific","0","","350","","34","2","","e","313","334","","","","false","3.05","1","","Test","21","","4"
"","","","","","","","","","","","html-keyboard-response","253","2.1.0","475898","6617d376619a2b4541498f2c","Prolific","0","","null","","35","2","<p style=""font-size: 70pt;"">+</p>","null","","","","","","","","","","","","",""
"","","","","","","","","","","","Stimulus Presentation","254","2.1.0","476210","6617d376619a2b4541498f2c","Prolific","0","","null","","35","2","","null","332","313","313","19","w","true","2.9499999999999997","","","","","",""
"","","","","","","","","","","","Stimulus Response","255","2.1.0","476993","6617d376619a2b4541498f2c","Prolific","0","","781","","35","2","","e","","","","","","","","0","","","","",""
"","","","","","","","","","","","Feedback","256","2.1.0","477496","6617d376619a2b4541498f2c","Prolific","0","","null","","35","2","","null","","","","","","","","","","","","",""
"","","","","","","","","","","","Confidence Rating","257","2.1.0","479712","6617d376619a2b4541498f2c","Prolific","0","","2214","","35","2","<h3>Rate your confidence:</h3>
            <div id=""conf1"" class=""conf"" style=""height:25px; width:154px; margin-top:2px; margin-left:15px;""></div>
            <div id=""conf2"" class=""conf"" style=""height:25px; width:154px; margin-top:2px; margin-left:169px;""></div>
            <div id=""conf3"" class=""conf"" style=""height:25px; width:154px; margin-top:2px; margin-left:323px;""></div>
            <div id=""conf4"" class=""conf"" style=""height:25px; width:154px; margin-top:2px; margin-left:477px;""></div>
          <div id=""conf5"" class=""conf"" style=""height:25px; width:154px; margin-top:2px; margin-left:631px;""></div>","3","","","","","","","","","","","","50",""
"","","","","","","","","","","","Summary Trial","258","2.1.0","479713","6617d376619a2b4541498f2c","Prolific","0","","781","","35","2","","e","332","313","","","","true","2.9499999999999997","0","","Test","19","","3"
"","","","","","","","","","","","html-keyboard-response","260","2.1.0","480722","6617d376619a2b4541498f2c","Prolific","0","","null","","36","2","<p style=""font-size: 70pt;"">+</p>","null","","","","","","","","","","","","",""
"","","","","","","","","","","","Stimulus Presentation","261","2.1.0","481030","6617d376619a2b4541498f2c","Prolific","0","","null","","36","2","","null","313","334","313","21","e","false","3.05","","","","","",""
"","","","","","","","","","","","Stimulus Response","262","2.1.0","481711","6617d376619a2b4541498f2c","Prolific","0","","680","","36","2","","e","","","","","","","","1","","","","",""
"","","","","","","","","","","","Feedback","263","2.1.0","482222","6617d376619a2b4541498f2c","Prolific","0","","null","","36","2","","null","","","","","","","","","","","","",""
"","","","","","","","","","","","Confidence Rating","264","2.1.0","485102","6617d376619a2b4541498f2c","Prolific","0","","2878","","36","2","<h3>Rate your confidence:</h3>
            <div id=""conf1"" class=""conf"" style=""height:25px; width:154px; margin-top:2px; margin-left:15px;""></div>
            <div id=""conf2"" class=""conf"" style=""height:25px; width:154px; margin-top:2px; margin-left:169px;""></div>
            <div id=""conf3"" class=""conf"" style=""height:25px; width:154px; margin-top:2px; margin-left:323px;""></div>
            <div id=""conf4"" class=""conf"" style=""height:25px; width:154px; margin-top:2px; margin-left:477px;""></div>
          <div id=""conf5"" class=""conf"" style=""height:25px; width:154px; margin-top:2px; margin-left:631px;""></div>","3","","","","","","","","","","","","50",""
"","","","","","","","","","","","Summary Trial","265","2.1.0","485103","6617d376619a2b4541498f2c","Prolific","0","","680","","36","2","","e","313","334","","","","false","3.05","1","","Test","21","","3"
"","","","","","","","","","","","html-keyboard-response","267","2.1.0","486109","6617d376619a2b4541498f2c","Prolific","0","","null","","37","2","<p style=""font-size: 70pt;"">+</p>","null","","","","","","","","","","","","",""
"","","","","","","","","","","","Stimulus Presentation","268","2.1.0","486417","6617d376619a2b4541498f2c","Prolific","0","","null","","37","2","","null","313","334","313","21","e","false","3.05","","","","","",""
"","","","","","","","","","","","Stimulus Response","269","2.1.0","486948","6617d376619a2b4541498f2c","Prolific","0","","529","","37","2","","e","","","","","","","","1","","","","",""
"","","","","","","","","","","","Feedback","270","2.1.0","487465","6617d376619a2b4541498f2c","Prolific","0","","null","","37","2","","null","","","","","","","","","","","","",""
"","","","","","","","","","","","Confidence Rating","271","2.1.0","489073","6617d376619a2b4541498f2c","Prolific","0","","1605","","37","2","<h3>Rate your confidence:</h3>
            <div id=""conf1"" class=""conf"" style=""height:25px; width:154px; margin-top:2px; margin-left:15px;""></div>
            <div id=""conf2"" class=""conf"" style=""height:25px; width:154px; margin-top:2px; margin-left:169px;""></div>
            <div id=""conf3"" class=""conf"" style=""height:25px; width:154px; margin-top:2px; margin-left:323px;""></div>
            <div id=""conf4"" class=""conf"" style=""height:25px; width:154px; margin-top:2px; margin-left:477px;""></div>
          <div id=""conf5"" class=""conf"" style=""height:25px; width:154px; margin-top:2px; margin-left:631px;""></div>","4","","","","","","","","","","","","50",""
"","","","","","","","","","","","Summary Trial","272","2.1.0","489074","6617d376619a2b4541498f2c","Prolific","0","","529","","37","2","","e","313","334","","","","false","3.05","1","","Test","21","","4"
"","","","","","","","","","","","html-keyboard-response","274","2.1.0","490083","6617d376619a2b4541498f2c","Prolific","0","","null","","38","2","<p style=""font-size: 70pt;"">+</p>","null","","","","","","","","","","","","",""
"","","","","","","","","","","","Stimulus Presentation","275","2.1.0","490399","6617d376619a2b4541498f2c","Prolific","0","","null","","38","2","","null","332","313","313","19","w","true","2.9499999999999997","","","","","",""
"","","","","","","","","","","","Stimulus Response","276","2.1.0","491576","6617d376619a2b4541498f2c","Prolific","0","","1175","","38","2","","w","","","","","","","","1","","","","",""
"","","","","","","","","","","","Feedback","277","2.1.0","492092","6617d376619a2b4541498f2c","Prolific","0","","null","","38","2","","null","","","","","","","","","","","","",""
"","","","","","","","","","","","Confidence Rating","278","2.1.0","495003","6617d376619a2b4541498f2c","Prolific","0","","2909","","38","2","<h3>Rate your confidence:</h3>
            <div id=""conf1"" class=""conf"" style=""height:25px; width:154px; margin-top:2px; margin-left:15px;""></div>
            <div id=""conf2"" class=""conf"" style=""height:25px; width:154px; margin-top:2px; margin-left:169px;""></div>
            <div id=""conf3"" class=""conf"" style=""height:25px; width:154px; margin-top:2px; margin-left:323px;""></div>
            <div id=""conf4"" class=""conf"" style=""height:25px; width:154px; margin-top:2px; margin-left:477px;""></div>
          <div id=""conf5"" class=""conf"" style=""height:25px; width:154px; margin-top:2px; margin-left:631px;""></div>","3","","","","","","","","","","","","50",""
"","","","","","","","","","","","Summary Trial","279","2.1.0","495004","6617d376619a2b4541498f2c","Prolific","0","","1175","","38","2","","w","332","313","","","","true","2.9499999999999997","1","","Test","19","","3"
"","","","","","","","","","","","html-keyboard-response","281","2.1.0","496019","6617d376619a2b4541498f2c","Prolific","0","","null","","39","2","<p style=""font-size: 70pt;"">+</p>","null","","","","","","","","","","","","",""
"","","","","","","","","","","","Stimulus Presentation","282","2.1.0","496323","6617d376619a2b4541498f2c","Prolific","0","","null","","39","2","","null","332","313","313","19","w","true","2.9499999999999997","","","","","",""
"","","","","","","","","","","","Stimulus Response","283","2.1.0","497008","6617d376619a2b4541498f2c","Prolific","0","","684","","39","2","","w","","","","","","","","1","","","","",""
"","","","","","","","","","","","Feedback","284","2.1.0","497511","6617d376619a2b4541498f2c","Prolific","0","","null","","39","2","","null","","","","","","","","","","","","",""
"","","","","","","","","","","","Confidence Rating","285","2.1.0","499412","6617d376619a2b4541498f2c","Prolific","0","","1898","","39","2","<h3>Rate your confidence:</h3>
            <div id=""conf1"" class=""conf"" style=""height:25px; width:154px; margin-top:2px; margin-left:15px;""></div>
            <div id=""conf2"" class=""conf"" style=""height:25px; width:154px; margin-top:2px; margin-left:169px;""></div>
            <div id=""conf3"" class=""conf"" style=""height:25px; width:154px; margin-top:2px; margin-left:323px;""></div>
            <div id=""conf4"" class=""conf"" style=""height:25px; width:154px; margin-top:2px; margin-left:477px;""></div>
          <div id=""conf5"" class=""conf"" style=""height:25px; width:154px; margin-top:2px; margin-left:631px;""></div>","3","","","","","","","","","","","","50",""
"","","","","","","","","","","","Summary Trial","286","2.1.0","499412","6617d376619a2b4541498f2c","Prolific","0","","684","","39","2","","w","332","313","","","","true","2.9499999999999997","1","","Test","19","","3"
"","","","","","","","","","","","html-keyboard-response","288","2.1.0","500428","6617d376619a2b4541498f2c","Prolific","0","","null","","40","2","<p style=""font-size: 70pt;"">+</p>","null","","","","","","","","","","","","",""
"","","","","","","","","","","","Stimulus Presentation","289","2.1.0","500743","6617d376619a2b4541498f2c","Prolific","0","","null","","40","2","","null","313","330","313","17","e","false","2.8499999999999996","","","","","",""
"","","","","","","","","","","","Stimulus Response","290","2.1.0","501173","6617d376619a2b4541498f2c","Prolific","0","","428","","40","2","","e","","","","","","","","1","","","","",""
"","","","","","","","","","","","Feedback","291","2.1.0","501675","6617d376619a2b4541498f2c","Prolific","0","","null","","40","2","","null","","","","","","","","","","","","",""
"","","","","","","","","","","","Confidence Rating","292","2.1.0","503416","6617d376619a2b4541498f2c","Prolific","0","","1740","","40","2","<h3>Rate your confidence:</h3>
            <div id=""conf1"" class=""conf"" style=""height:25px; width:154px; margin-top:2px; margin-left:15px;""></div>
            <div id=""conf2"" class=""conf"" style=""height:25px; width:154px; margin-top:2px; margin-left:169px;""></div>
            <div id=""conf3"" class=""conf"" style=""height:25px; width:154px; margin-top:2px; margin-left:323px;""></div>
            <div id=""conf4"" class=""conf"" style=""height:25px; width:154px; margin-top:2px; margin-left:477px;""></div>
          <div id=""conf5"" class=""conf"" style=""height:25px; width:154px; margin-top:2px; margin-left:631px;""></div>","4","","","","","","","","","","","","50",""
"","","","","","","","","","","","Summary Trial","293","2.1.0","503417","6617d376619a2b4541498f2c","Prolific","0","","428","","40","2","","e","313","330","","","","false","2.8499999999999996","1","","Test","17","","4"
"","","","","","","","","","","","html-keyboard-response","295","2.1.0","504432","6617d376619a2b4541498f2c","Prolific","0","","null","","41","2","<p style=""font-size: 70pt;"">+</p>","null","","","","","","","","","","","","",""
"","","","","","","","","","","","Stimulus Presentation","296","2.1.0","504743","6617d376619a2b4541498f2c","Prolific","0","","null","","41","2","","null","313","330","313","17","e","false","2.8499999999999996","","","","","",""
"","","","","","","","","","","","Stimulus Response","297","2.1.0","505301","6617d376619a2b4541498f2c","Prolific","0","","556","","41","2","","w","","","","","","","","0","","","","",""
"","","","","","","","","","","","Feedback","298","2.1.0","505811","6617d376619a2b4541498f2c","Prolific","0","","null","","41","2","","null","","","","","","","","","","","","",""
"","","","","","","","","","","","Confidence Rating","299","2.1.0","507582","6617d376619a2b4541498f2c","Prolific","0","","1770","","41","2","<h3>Rate your confidence:</h3>
            <div id=""conf1"" class=""conf"" style=""height:25px; width:154px; margin-top:2px; margin-left:15px;""></div>
            <div id=""conf2"" class=""conf"" style=""height:25px; width:154px; margin-top:2px; margin-left:169px;""></div>
            <div id=""conf3"" class=""conf"" style=""height:25px; width:154px; margin-top:2px; margin-left:323px;""></div>
            <div id=""conf4"" class=""conf"" style=""height:25px; width:154px; margin-top:2px; margin-left:477px;""></div>
          <div id=""conf5"" class=""conf"" style=""height:25px; width:154px; margin-top:2px; margin-left:631px;""></div>","3","","","","","","","","","","","","50",""
"","","","","","","","","","","","Summary Trial","300","2.1.0","507583","6617d376619a2b4541498f2c","Prolific","0","","556","","41","2","","w","313","330","","","","false","2.8499999999999996","0","","Test","17","","3"
"","","","","","","","","","","","html-keyboard-response","302","2.1.0","508591","6617d376619a2b4541498f2c","Prolific","0","","null","","42","2","<p style=""font-size: 70pt;"">+</p>","null","","","","","","","","","","","","",""
"","","","","","","","","","","","Stimulus Presentation","303","2.1.0","508899","6617d376619a2b4541498f2c","Prolific","0","","null","","42","2","","null","332","313","313","19","w","true","2.9499999999999997","","","","","",""
"","","","","","","","","","","","Stimulus Response","304","2.1.0","509349","6617d376619a2b4541498f2c","Prolific","0","","448","","42","2","","e","","","","","","","","0","","","","",""
"","","","","","","","","","","","Feedback","305","2.1.0","509859","6617d376619a2b4541498f2c","Prolific","0","","null","","42","2","","null","","","","","","","","","","","","",""
"","","","","","","","","","","","Confidence Rating","306","2.1.0","512221","6617d376619a2b4541498f2c","Prolific","0","","2360","","42","2","<h3>Rate your confidence:</h3>
            <div id=""conf1"" class=""conf"" style=""height:25px; width:154px; margin-top:2px; margin-left:15px;""></div>
            <div id=""conf2"" class=""conf"" style=""height:25px; width:154px; margin-top:2px; margin-left:169px;""></div>
            <div id=""conf3"" class=""conf"" style=""height:25px; width:154px; margin-top:2px; margin-left:323px;""></div>
            <div id=""conf4"" class=""conf"" style=""height:25px; width:154px; margin-top:2px; margin-left:477px;""></div>
          <div id=""conf5"" class=""conf"" style=""height:25px; width:154px; margin-top:2px; margin-left:631px;""></div>","3","","","","","","","","","","","","50",""
"","","","","","","","","","","","Summary Trial","307","2.1.0","512222","6617d376619a2b4541498f2c","Prolific","0","","448","","42","2","","e","332","313","","","","true","2.9499999999999997","0","","Test","19","","3"
"","","","","","","","","","","","html-keyboard-response","309","2.1.0","513229","6617d376619a2b4541498f2c","Prolific","0","","null","","43","2","<p style=""font-size: 70pt;"">+</p>","null","","","","","","","","","","","","",""
"","","","","","","","","","","","Stimulus Presentation","310","2.1.0","513538","6617d376619a2b4541498f2c","Prolific","0","","null","","43","2","","null","313","334","313","21","e","false","3.05","","","","","",""
"","","","","","","","","","","","Stimulus Response","311","2.1.0","513988","6617d376619a2b4541498f2c","Prolific","0","","449","","43","2","","e","","","","","","","","1","","","","",""
"","","","","","","","","","","","Feedback","312","2.1.0","514493","6617d376619a2b4541498f2c","Prolific","0","","null","","43","2","","null","","","","","","","","","","","","",""
"","","","","","","","","","","","Confidence Rating","313","2.1.0","516102","6617d376619a2b4541498f2c","Prolific","0","","1607","","43","2","<h3>Rate your confidence:</h3>
            <div id=""conf1"" class=""conf"" style=""height:25px; width:154px; margin-top:2px; margin-left:15px;""></div>
            <div id=""conf2"" class=""conf"" style=""height:25px; width:154px; margin-top:2px; margin-left:169px;""></div>
            <div id=""conf3"" class=""conf"" style=""height:25px; width:154px; margin-top:2px; margin-left:323px;""></div>
            <div id=""conf4"" class=""conf"" style=""height:25px; width:154px; margin-top:2px; margin-left:477px;""></div>
          <div id=""conf5"" class=""conf"" style=""height:25px; width:154px; margin-top:2px; margin-left:631px;""></div>","4","","","","","","","","","","","","50",""
"","","","","","","","","","","","Summary Trial","314","2.1.0","516103","6617d376619a2b4541498f2c","Prolific","0","","449","","43","2","","e","313","334","","","","false","3.05","1","","Test","21","","4"
"","","","","","","","","","","","html-keyboard-response","316","2.1.0","517105","6617d376619a2b4541498f2c","Prolific","0","","null","","44","2","<p style=""font-size: 70pt;"">+</p>","null","","","","","","","","","","","","",""
"","","","","","","","","","","","Stimulus Presentation","317","2.1.0","517414","6617d376619a2b4541498f2c","Prolific","0","","null","","44","2","","null","334","313","313","21","w","true","3.05","","","","","",""
"","","","","","","","","","","","Stimulus Response","318","2.1.0","517843","6617d376619a2b4541498f2c","Prolific","0","","428","","44","2","","e","","","","","","","","0","","","","",""
"","","","","","","","","","","","Feedback","319","2.1.0","518353","6617d376619a2b4541498f2c","Prolific","0","","null","","44","2","","null","","","","","","","","","","","","",""
"","","","","","","","","","","","Confidence Rating","320","2.1.0","520169","6617d376619a2b4541498f2c","Prolific","0","","1814","","44","2","<h3>Rate your confidence:</h3>
            <div id=""conf1"" class=""conf"" style=""height:25px; width:154px; margin-top:2px; margin-left:15px;""></div>
            <div id=""conf2"" class=""conf"" style=""height:25px; width:154px; margin-top:2px; margin-left:169px;""></div>
            <div id=""conf3"" class=""conf"" style=""height:25px; width:154px; margin-top:2px; margin-left:323px;""></div>
            <div id=""conf4"" class=""conf"" style=""height:25px; width:154px; margin-top:2px; margin-left:477px;""></div>
          <div id=""conf5"" class=""conf"" style=""height:25px; width:154px; margin-top:2px; margin-left:631px;""></div>","3","","","","","","","","","","","","50",""
"","","","","","","","","","","","Summary Trial","321","2.1.0","520170","6617d376619a2b4541498f2c","Prolific","0","","428","","44","2","","e","334","313","","","","true","3.05","0","","Test","21","","3"
"","","","","","","","","","","","html-keyboard-response","323","2.1.0","521184","6617d376619a2b4541498f2c","Prolific","0","","null","","45","2","<p style=""font-size: 70pt;"">+</p>","null","","","","","","","","","","","","",""
"","","","","","","","","","","","Stimulus Presentation","324","2.1.0","521498","6617d376619a2b4541498f2c","Prolific","0","","null","","45","2","","null","336","313","313","23","w","true","3.15","","","","","",""
"","","","","","","","","","","","Stimulus Response","325","2.1.0","523091","6617d376619a2b4541498f2c","Prolific","0","","1592","","45","2","","e","","","","","","","","0","","","","",""
"","","","","","","","","","","","Feedback","326","2.1.0","523601","6617d376619a2b4541498f2c","Prolific","0","","null","","45","2","","null","","","","","","","","","","","","",""
"","","","","","","","","","","","Confidence Rating","327","2.1.0","525541","6617d376619a2b4541498f2c","Prolific","0","","1938","","45","2","<h3>Rate your confidence:</h3>
            <div id=""conf1"" class=""conf"" style=""height:25px; width:154px; margin-top:2px; margin-left:15px;""></div>
            <div id=""conf2"" class=""conf"" style=""height:25px; width:154px; margin-top:2px; margin-left:169px;""></div>
            <div id=""conf3"" class=""conf"" style=""height:25px; width:154px; margin-top:2px; margin-left:323px;""></div>
            <div id=""conf4"" class=""conf"" style=""height:25px; width:154px; margin-top:2px; margin-left:477px;""></div>
          <div id=""conf5"" class=""conf"" style=""height:25px; width:154px; margin-top:2px; margin-left:631px;""></div>","4","","","","","","","","","","","","50",""
"","","","","","","","","","","","Summary Trial","328","2.1.0","525542","6617d376619a2b4541498f2c","Prolific","0","","1592","","45","2","","e","336","313","","","","true","3.15","0","","Test","23","","4"
"","","","","","","","","","","","html-keyboard-response","330","2.1.0","526550","6617d376619a2b4541498f2c","Prolific","0","","null","","46","2","<p style=""font-size: 70pt;"">+</p>","null","","","","","","","","","","","","",""
"","","","","","","","","","","","Stimulus Presentation","331","2.1.0","526852","6617d376619a2b4541498f2c","Prolific","0","","null","","46","2","","null","313","339","313","26","e","false","3.25","","","","","",""
"","","","","","","","","","","","Stimulus Response","332","2.1.0","527616","6617d376619a2b4541498f2c","Prolific","0","","762","","46","2","","e","","","","","","","","1","","","","",""
"","","","","","","","","","","","Feedback","333","2.1.0","528126","6617d376619a2b4541498f2c","Prolific","0","","null","","46","2","","null","","","","","","","","","","","","",""
"","","","","","","","","","","","Confidence Rating","334","2.1.0","530605","6617d376619a2b4541498f2c","Prolific","0","","2477","","46","2","<h3>Rate your confidence:</h3>
            <div id=""conf1"" class=""conf"" style=""height:25px; width:154px; margin-top:2px; margin-left:15px;""></div>
            <div id=""conf2"" class=""conf"" style=""height:25px; width:154px; margin-top:2px; margin-left:169px;""></div>
            <div id=""conf3"" class=""conf"" style=""height:25px; width:154px; margin-top:2px; margin-left:323px;""></div>
            <div id=""conf4"" class=""conf"" style=""height:25px; width:154px; margin-top:2px; margin-left:477px;""></div>
          <div id=""conf5"" class=""conf"" style=""height:25px; width:154px; margin-top:2px; margin-left:631px;""></div>","3","","","","","","","","","","","","50",""
"","","","","","","","","","","","Summary Trial","335","2.1.0","530605","6617d376619a2b4541498f2c","Prolific","0","","762","","46","2","","e","313","339","","","","false","3.25","1","","Test","26","","3"
"","","","","","","","","","","","html-keyboard-response","337","2.1.0","531616","6617d376619a2b4541498f2c","Prolific","0","","null","","47","2","<p style=""font-size: 70pt;"">+</p>","null","","","","","","","","","","","","",""
"","","","","","","","","","","","Stimulus Presentation","338","2.1.0","531934","6617d376619a2b4541498f2c","Prolific","0","","null","","47","2","","null","339","313","313","26","w","true","3.25","","","","","",""
"","","","","","","","","","","","Stimulus Response","339","2.1.0","532726","6617d376619a2b4541498f2c","Prolific","0","","791","","47","2","","w","","","","","","","","1","","","","",""
"","","","","","","","","","","","Feedback","340","2.1.0","533231","6617d376619a2b4541498f2c","Prolific","0","","null","","47","2","","null","","","","","","","","","","","","",""
"","","","","","","","","","","","Confidence Rating","341","2.1.0","535256","6617d376619a2b4541498f2c","Prolific","0","","2024","","47","2","<h3>Rate your confidence:</h3>
            <div id=""conf1"" class=""conf"" style=""height:25px; width:154px; margin-top:2px; margin-left:15px;""></div>
            <div id=""conf2"" class=""conf"" style=""height:25px; width:154px; margin-top:2px; margin-left:169px;""></div>
            <div id=""conf3"" class=""conf"" style=""height:25px; width:154px; margin-top:2px; margin-left:323px;""></div>
            <div id=""conf4"" class=""conf"" style=""height:25px; width:154px; margin-top:2px; margin-left:477px;""></div>
          <div id=""conf5"" class=""conf"" style=""height:25px; width:154px; margin-top:2px; margin-left:631px;""></div>","3","","","","","","","","","","","","50",""
"","","","","","","","","","","","Summary Trial","342","2.1.0","535257","6617d376619a2b4541498f2c","Prolific","0","","791","","47","2","","w","339","313","","","","true","3.25","1","","Test","26","","3"
"","","","","","","","","","","","html-keyboard-response","344","2.1.0","536269","6617d376619a2b4541498f2c","Prolific","0","","null","","48","2","<p style=""font-size: 70pt;"">+</p>","null","","","","","","","","","","","","",""
"","","","","","","","","","","","Stimulus Presentation","345","2.1.0","536575","6617d376619a2b4541498f2c","Prolific","0","","null","","48","2","","null","313","336","313","23","e","false","3.15","","","","","",""
"","","","","","","","","","","","Stimulus Response","346","2.1.0","537245","6617d376619a2b4541498f2c","Prolific","0","","669","","48","2","","e","","","","","","","","1","","","","",""
"","","","","","","","","","","","Feedback","347","2.1.0","537747","6617d376619a2b4541498f2c","Prolific","0","","null","","48","2","","null","","","","","","","","","","","","",""
"","","","","","","","","","","","Confidence Rating","348","2.1.0","539629","6617d376619a2b4541498f2c","Prolific","0","","1880","","48","2","<h3>Rate your confidence:</h3>
            <div id=""conf1"" class=""conf"" style=""height:25px; width:154px; margin-top:2px; margin-left:15px;""></div>
            <div id=""conf2"" class=""conf"" style=""height:25px; width:154px; margin-top:2px; margin-left:169px;""></div>
            <div id=""conf3"" class=""conf"" style=""height:25px; width:154px; margin-top:2px; margin-left:323px;""></div>
            <div id=""conf4"" class=""conf"" style=""height:25px; width:154px; margin-top:2px; margin-left:477px;""></div>
          <div id=""conf5"" class=""conf"" style=""height:25px; width:154px; margin-top:2px; margin-left:631px;""></div>","4","","","","","","","","","","","","50",""
"","","","","","","","","","","","Summary Trial","349","2.1.0","539630","6617d376619a2b4541498f2c","Prolific","0","","669","","48","2","","e","313","336","","","","false","3.15","1","","Test","23","","4"
"","","","","","","","","","","","html-keyboard-response","351","2.1.0","540645","6617d376619a2b4541498f2c","Prolific","0","","null","","49","2","<p style=""font-size: 70pt;"">+</p>","null","","","","","","","","","","","","",""
"","","","","","","","","","","","Stimulus Presentation","352","2.1.0","540953","6617d376619a2b4541498f2c","Prolific","0","","null","","49","2","","null","313","336","313","23","e","false","3.15","","","","","",""
"","","","","","","","","","","","Stimulus Response","353","2.1.0","541452","6617d376619a2b4541498f2c","Prolific","0","","498","","49","2","","e","","","","","","","","1","","","","",""
"","","","","","","","","","","","Feedback","354","2.1.0","541958","6617d376619a2b4541498f2c","Prolific","0","","null","","49","2","","null","","","","","","","","","","","","",""
"","","","","","","","","","","","Confidence Rating","355","2.1.0","544459","6617d376619a2b4541498f2c","Prolific","0","","2499","","49","2","<h3>Rate your confidence:</h3>
            <div id=""conf1"" class=""conf"" style=""height:25px; width:154px; margin-top:2px; margin-left:15px;""></div>
            <div id=""conf2"" class=""conf"" style=""height:25px; width:154px; margin-top:2px; margin-left:169px;""></div>
            <div id=""conf3"" class=""conf"" style=""height:25px; width:154px; margin-top:2px; margin-left:323px;""></div>
            <div id=""conf4"" class=""conf"" style=""height:25px; width:154px; margin-top:2px; margin-left:477px;""></div>
          <div id=""conf5"" class=""conf"" style=""height:25px; width:154px; margin-top:2px; margin-left:631px;""></div>","4","","","","","","","","","","","","50",""
"","","","","","","","","","","","Summary Trial","356","2.1.0","544460","6617d376619a2b4541498f2c","Prolific","0","","498","","49","2","","e","313","336","","","","false","3.15","1","","Test","23","","4"
"","","","","","","","","","","","html-keyboard-response","358","2.1.0","545476","6617d376619a2b4541498f2c","Prolific","0","","null","","50","2","<p style=""font-size: 70pt;"">+</p>","null","","","","","","","","","","","","",""
"","","","","","","","","","","","Stimulus Presentation","359","2.1.0","545794","6617d376619a2b4541498f2c","Prolific","0","","null","","50","2","","null","334","313","313","21","w","true","3.05","","","","","",""
"","","","","","","","","","","","Stimulus Response","360","2.1.0","546436","6617d376619a2b4541498f2c","Prolific","0","","640","","50","2","","e","","","","","","","","0","","","","",""
"","","","","","","","","","","","Feedback","361","2.1.0","546945","6617d376619a2b4541498f2c","Prolific","0","","null","","50","2","","null","","","","","","","","","","","","",""
"","","","","","","","","","","","Confidence Rating","362","2.1.0","548661","6617d376619a2b4541498f2c","Prolific","0","","1714","","50","2","<h3>Rate your confidence:</h3>
            <div id=""conf1"" class=""conf"" style=""height:25px; width:154px; margin-top:2px; margin-left:15px;""></div>
            <div id=""conf2"" class=""conf"" style=""height:25px; width:154px; margin-top:2px; margin-left:169px;""></div>
            <div id=""conf3"" class=""conf"" style=""height:25px; width:154px; margin-top:2px; margin-left:323px;""></div>
            <div id=""conf4"" class=""conf"" style=""height:25px; width:154px; margin-top:2px; margin-left:477px;""></div>
          <div id=""conf5"" class=""conf"" style=""height:25px; width:154px; margin-top:2px; margin-left:631px;""></div>","4","","","","","","","","","","","","50",""
"","","","","","","","","","","","Summary Trial","363","2.1.0","548662","6617d376619a2b4541498f2c","Prolific","0","","640","","50","2","","e","334","313","","","","true","3.05","0","","Test","21","","4"
"","","","","","","","","","","","html-keyboard-response","365","2.1.0","549665","6617d376619a2b4541498f2c","Prolific","0","","null","","51","2","<p style=""font-size: 70pt;"">+</p>","null","","","","","","","","","","","","",""
"","","","","","","","","","","","Stimulus Presentation","366","2.1.0","549982","6617d376619a2b4541498f2c","Prolific","0","","null","","51","2","","null","336","313","313","23","w","true","3.15","","","","","",""
"","","","","","","","","","","","Stimulus Response","367","2.1.0","550287","6617d376619a2b4541498f2c","Prolific","0","","303","","51","2","","w","","","","","","","","1","","","","",""
"","","","","","","","","","","","Feedback","368","2.1.0","550807","6617d376619a2b4541498f2c","Prolific","0","","null","","51","2","","null","","","","","","","","","","","","",""
"","","","","","","","","","","","Confidence Rating","369","2.1.0","553579","6617d376619a2b4541498f2c","Prolific","0","","2770","","51","2","<h3>Rate your confidence:</h3>
            <div id=""conf1"" class=""conf"" style=""height:25px; width:154px; margin-top:2px; margin-left:15px;""></div>
            <div id=""conf2"" class=""conf"" style=""height:25px; width:154px; margin-top:2px; margin-left:169px;""></div>
            <div id=""conf3"" class=""conf"" style=""height:25px; width:154px; margin-top:2px; margin-left:323px;""></div>
            <div id=""conf4"" class=""conf"" style=""height:25px; width:154px; margin-top:2px; margin-left:477px;""></div>
          <div id=""conf5"" class=""conf"" style=""height:25px; width:154px; margin-top:2px; margin-left:631px;""></div>","5","","","","","","","","","","","","50",""
"","","","","","","","","","","","Summary Trial","370","2.1.0","553580","6617d376619a2b4541498f2c","Prolific","0","","303","","51","2","","w","336","313","","","","true","3.15","1","","Test","23","","5"
"","","","","","","","","","","","html-keyboard-response","372","2.1.0","554587","6617d376619a2b4541498f2c","Prolific","0","","null","","52","2","<p style=""font-size: 70pt;"">+</p>","null","","","","","","","","","","","","",""
"","","","","","","","","","","","Stimulus Presentation","373","2.1.0","554904","6617d376619a2b4541498f2c","Prolific","0","","null","","52","2","","null","313","336","313","23","e","false","3.15","","","","","",""
"","","","","","","","","","","","Stimulus Response","374","2.1.0","555538","6617d376619a2b4541498f2c","Prolific","0","","633","","52","2","","e","","","","","","","","1","","","","",""
"","","","","","","","","","","","Feedback","375","2.1.0","556048","6617d376619a2b4541498f2c","Prolific","0","","null","","52","2","","null","","","","","","","","","","","","",""
"","","","","","","","","","","","Confidence Rating","376","2.1.0","560304","6617d376619a2b4541498f2c","Prolific","0","","4254","","52","2","<h3>Rate your confidence:</h3>
            <div id=""conf1"" class=""conf"" style=""height:25px; width:154px; margin-top:2px; margin-left:15px;""></div>
            <div id=""conf2"" class=""conf"" style=""height:25px; width:154px; margin-top:2px; margin-left:169px;""></div>
            <div id=""conf3"" class=""conf"" style=""height:25px; width:154px; margin-top:2px; margin-left:323px;""></div>
            <div id=""conf4"" class=""conf"" style=""height:25px; width:154px; margin-top:2px; margin-left:477px;""></div>
          <div id=""conf5"" class=""conf"" style=""height:25px; width:154px; margin-top:2px; margin-left:631px;""></div>","4","","","","","","","","","","","","50",""
"","","","","","","","","","","","Summary Trial","377","2.1.0","560304","6617d376619a2b4541498f2c","Prolific","0","","633","","52","2","","e","313","336","","","","false","3.15","1","","Test","23","","4"
"","","","","","","","","","","","html-keyboard-response","379","2.1.0","561311","6617d376619a2b4541498f2c","Prolific","0","","null","","53","2","<p style=""font-size: 70pt;"">+</p>","null","","","","","","","","","","","","",""
"","","","","","","","","","","","Stimulus Presentation","380","2.1.0","561619","6617d376619a2b4541498f2c","Prolific","0","","null","","53","2","","null","334","313","313","21","w","true","3.05","","","","","",""
"","","","","","","","","","","","Stimulus Response","381","2.1.0","562179","6617d376619a2b4541498f2c","Prolific","0","","558","","53","2","","e","","","","","","","","0","","","","",""
"","","","","","","","","","","","Feedback","382","2.1.0","562695","6617d376619a2b4541498f2c","Prolific","0","","null","","53","2","","null","","","","","","","","","","","","",""
"","","","","","","","","","","","Confidence Rating","383","2.1.0","565034","6617d376619a2b4541498f2c","Prolific","0","","2337","","53","2","<h3>Rate your confidence:</h3>
            <div id=""conf1"" class=""conf"" style=""height:25px; width:154px; margin-top:2px; margin-left:15px;""></div>
            <div id=""conf2"" class=""conf"" style=""height:25px; width:154px; margin-top:2px; margin-left:169px;""></div>
            <div id=""conf3"" class=""conf"" style=""height:25px; width:154px; margin-top:2px; margin-left:323px;""></div>
            <div id=""conf4"" class=""conf"" style=""height:25px; width:154px; margin-top:2px; margin-left:477px;""></div>
          <div id=""conf5"" class=""conf"" style=""height:25px; width:154px; margin-top:2px; margin-left:631px;""></div>","4","","","","","","","","","","","","50",""
"","","","","","","","","","","","Summary Trial","384","2.1.0","565035","6617d376619a2b4541498f2c","Prolific","0","","558","","53","2","","e","334","313","","","","true","3.05","0","","Test","21","","4"
"","","","","","","","","","","","html-keyboard-response","386","2.1.0","566043","6617d376619a2b4541498f2c","Prolific","0","","null","","54","2","<p style=""font-size: 70pt;"">+</p>","null","","","","","","","","","","","","",""
"","","","","","","","","","","","Stimulus Presentation","387","2.1.0","566357","6617d376619a2b4541498f2c","Prolific","0","","null","","54","2","","null","313","336","313","23","e","false","3.15","","","","","",""
"","","","","","","","","","","","Stimulus Response","388","2.1.0","566791","6617d376619a2b4541498f2c","Prolific","0","","432","","54","2","","w","","","","","","","","0","","","","",""
"","","","","","","","","","","","Feedback","389","2.1.0","567299","6617d376619a2b4541498f2c","Prolific","0","","null","","54","2","","null","","","","","","","","","","","","",""
"","","","","","","","","","","","Confidence Rating","390","2.1.0","569851","6617d376619a2b4541498f2c","Prolific","0","","2549","","54","2","<h3>Rate your confidence:</h3>
            <div id=""conf1"" class=""conf"" style=""height:25px; width:154px; margin-top:2px; margin-left:15px;""></div>
            <div id=""conf2"" class=""conf"" style=""height:25px; width:154px; margin-top:2px; margin-left:169px;""></div>
            <div id=""conf3"" class=""conf"" style=""height:25px; width:154px; margin-top:2px; margin-left:323px;""></div>
            <div id=""conf4"" class=""conf"" style=""height:25px; width:154px; margin-top:2px; margin-left:477px;""></div>
          <div id=""conf5"" class=""conf"" style=""height:25px; width:154px; margin-top:2px; margin-left:631px;""></div>","4","","","","","","","","","","","","50",""
"","","","","","","","","","","","Summary Trial","391","2.1.0","569852","6617d376619a2b4541498f2c","Prolific","0","","432","","54","2","","w","313","336","","","","false","3.15","0","","Test","23","","4"
"","","","","","","","","","","","html-keyboard-response","393","2.1.0","570868","6617d376619a2b4541498f2c","Prolific","0","","null","","55","2","<p style=""font-size: 70pt;"">+</p>","null","","","","","","","","","","","","",""
"","","","","","","","","","","","Stimulus Presentation","394","2.1.0","571191","6617d376619a2b4541498f2c","Prolific","0","","null","","55","2","","null","313","339","313","26","e","false","3.25","","","","","",""
"","","","","","","","","","","","Stimulus Response","395","2.1.0","571878","6617d376619a2b4541498f2c","Prolific","0","","686","","55","2","","e","","","","","","","","1","","","","",""
"","","","","","","","","","","","Feedback","396","2.1.0","572380","6617d376619a2b4541498f2c","Prolific","0","","null","","55","2","","null","","","","","","","","","","","","",""
"","","","","","","","","","","","Confidence Rating","397","2.1.0","573969","6617d376619a2b4541498f2c","Prolific","0","","1588","","55","2","<h3>Rate your confidence:</h3>
            <div id=""conf1"" class=""conf"" style=""height:25px; width:154px; margin-top:2px; margin-left:15px;""></div>
            <div id=""conf2"" class=""conf"" style=""height:25px; width:154px; margin-top:2px; margin-left:169px;""></div>
            <div id=""conf3"" class=""conf"" style=""height:25px; width:154px; margin-top:2px; margin-left:323px;""></div>
            <div id=""conf4"" class=""conf"" style=""height:25px; width:154px; margin-top:2px; margin-left:477px;""></div>
          <div id=""conf5"" class=""conf"" style=""height:25px; width:154px; margin-top:2px; margin-left:631px;""></div>","4","","","","","","","","","","","","50",""
"","","","","","","","","","","","Summary Trial","398","2.1.0","573970","6617d376619a2b4541498f2c","Prolific","0","","686","","55","2","","e","313","339","","","","false","3.25","1","","Test","26","","4"
"","","","","","","","","","","","html-keyboard-response","400","2.1.0","574986","6617d376619a2b4541498f2c","Prolific","0","","null","","56","2","<p style=""font-size: 70pt;"">+</p>","null","","","","","","","","","","","","",""
"","","","","","","","","","","","Stimulus Presentation","401","2.1.0","575291","6617d376619a2b4541498f2c","Prolific","0","","null","","56","2","","null","339","313","313","26","w","true","3.25","","","","","",""
"","","","","","","","","","","","Stimulus Response","402","2.1.0","575928","6617d376619a2b4541498f2c","Prolific","0","","635","","56","2","","w","","","","","","","","1","","","","",""
"","","","","","","","","","","","Feedback","403","2.1.0","576442","6617d376619a2b4541498f2c","Prolific","0","","null","","56","2","","null","","","","","","","","","","","","",""
"","","","","","","","","","","","Confidence Rating","404","2.1.0","578410","6617d376619a2b4541498f2c","Prolific","0","","1965","","56","2","<h3>Rate your confidence:</h3>
            <div id=""conf1"" class=""conf"" style=""height:25px; width:154px; margin-top:2px; margin-left:15px;""></div>
            <div id=""conf2"" class=""conf"" style=""height:25px; width:154px; margin-top:2px; margin-left:169px;""></div>
            <div id=""conf3"" class=""conf"" style=""height:25px; width:154px; margin-top:2px; margin-left:323px;""></div>
            <div id=""conf4"" class=""conf"" style=""height:25px; width:154px; margin-top:2px; margin-left:477px;""></div>
          <div id=""conf5"" class=""conf"" style=""height:25px; width:154px; margin-top:2px; margin-left:631px;""></div>","4","","","","","","","","","","","","50",""
"","","","","","","","","","","","Summary Trial","405","2.1.0","578411","6617d376619a2b4541498f2c","Prolific","0","","635","","56","2","","w","339","313","","","","true","3.25","1","","Test","26","","4"
"","","","","","","","","","","","html-keyboard-response","407","2.1.0","579424","6617d376619a2b4541498f2c","Prolific","0","","null","","57","2","<p style=""font-size: 70pt;"">+</p>","null","","","","","","","","","","","","",""
"","","","","","","","","","","","Stimulus Presentation","408","2.1.0","579728","6617d376619a2b4541498f2c","Prolific","0","","null","","57","2","","null","336","313","313","23","w","true","3.15","","","","","",""
"","","","","","","","","","","","Stimulus Response","409","2.1.0","580354","6617d376619a2b4541498f2c","Prolific","0","","623","","57","2","","w","","","","","","","","1","","","","",""
"","","","","","","","","","","","Feedback","410","2.1.0","580860","6617d376619a2b4541498f2c","Prolific","0","","null","","57","2","","null","","","","","","","","","","","","",""
"","","","","","","","","","","","Confidence Rating","411","2.1.0","582872","6617d376619a2b4541498f2c","Prolific","0","","2010","","57","2","<h3>Rate your confidence:</h3>
            <div id=""conf1"" class=""conf"" style=""height:25px; width:154px; margin-top:2px; margin-left:15px;""></div>
            <div id=""conf2"" class=""conf"" style=""height:25px; width:154px; margin-top:2px; margin-left:169px;""></div>
            <div id=""conf3"" class=""conf"" style=""height:25px; width:154px; margin-top:2px; margin-left:323px;""></div>
            <div id=""conf4"" class=""conf"" style=""height:25px; width:154px; margin-top:2px; margin-left:477px;""></div>
          <div id=""conf5"" class=""conf"" style=""height:25px; width:154px; margin-top:2px; margin-left:631px;""></div>","4","","","","","","","","","","","","50",""
"","","","","","","","","","","","Summary Trial","412","2.1.0","582873","6617d376619a2b4541498f2c","Prolific","0","","623","","57","2","","w","336","313","","","","true","3.15","1","","Test","23","","4"
"","","","","","","","","","","","html-keyboard-response","414","2.1.0","583885","6617d376619a2b4541498f2c","Prolific","0","","null","","58","2","<p style=""font-size: 70pt;"">+</p>","null","","","","","","","","","","","","",""
"","","","","","","","","","","","Stimulus Presentation","415","2.1.0","584201","6617d376619a2b4541498f2c","Prolific","0","","null","","58","2","","null","313","336","313","23","e","false","3.15","","","","","",""
"","","","","","","","","","","","Stimulus Response","416","2.1.0","584791","6617d376619a2b4541498f2c","Prolific","0","","589","","58","2","","e","","","","","","","","1","","","","",""
"","","","","","","","","","","","Feedback","417","2.1.0","585296","6617d376619a2b4541498f2c","Prolific","0","","null","","58","2","","null","","","","","","","","","","","","",""
"","","","","","","","","","","","Confidence Rating","418","2.1.0","587020","6617d376619a2b4541498f2c","Prolific","0","","1722","","58","2","<h3>Rate your confidence:</h3>
            <div id=""conf1"" class=""conf"" style=""height:25px; width:154px; margin-top:2px; margin-left:15px;""></div>
            <div id=""conf2"" class=""conf"" style=""height:25px; width:154px; margin-top:2px; margin-left:169px;""></div>
            <div id=""conf3"" class=""conf"" style=""height:25px; width:154px; margin-top:2px; margin-left:323px;""></div>
            <div id=""conf4"" class=""conf"" style=""height:25px; width:154px; margin-top:2px; margin-left:477px;""></div>
          <div id=""conf5"" class=""conf"" style=""height:25px; width:154px; margin-top:2px; margin-left:631px;""></div>","3","","","","","","","","","","","","50",""
"","","","","","","","","","","","Summary Trial","419","2.1.0","587021","6617d376619a2b4541498f2c","Prolific","0","","589","","58","2","","e","313","336","","","","false","3.15","1","","Test","23","","3"
"","","","","","","","","","","","html-keyboard-response","421","2.1.0","588034","6617d376619a2b4541498f2c","Prolific","0","","null","","59","2","<p style=""font-size: 70pt;"">+</p>","null","","","","","","","","","","","","",""
"","","","","","","","","","","","Stimulus Presentation","422","2.1.0","588349","6617d376619a2b4541498f2c","Prolific","0","","null","","59","2","","null","313","334","313","21","e","false","3.05","","","","","",""
"","","","","","","","","","","","Stimulus Response","423","2.1.0","588916","6617d376619a2b4541498f2c","Prolific","0","","566","","59","2","","e","","","","","","","","1","","","","",""
"","","","","","","","","","","","Feedback","424","2.1.0","589422","6617d376619a2b4541498f2c","Prolific","0","","null","","59","2","","null","","","","","","","","","","","","",""
"","","","","","","","","","","","Confidence Rating","425","2.1.0","591429","6617d376619a2b4541498f2c","Prolific","0","","2005","","59","2","<h3>Rate your confidence:</h3>
            <div id=""conf1"" class=""conf"" style=""height:25px; width:154px; margin-top:2px; margin-left:15px;""></div>
            <div id=""conf2"" class=""conf"" style=""height:25px; width:154px; margin-top:2px; margin-left:169px;""></div>
            <div id=""conf3"" class=""conf"" style=""height:25px; width:154px; margin-top:2px; margin-left:323px;""></div>
            <div id=""conf4"" class=""conf"" style=""height:25px; width:154px; margin-top:2px; margin-left:477px;""></div>
          <div id=""conf5"" class=""conf"" style=""height:25px; width:154px; margin-top:2px; margin-left:631px;""></div>","4","","","","","","","","","","","","50",""
"","","","","","","","","","","","Summary Trial","426","2.1.0","591430","6617d376619a2b4541498f2c","Prolific","0","","566","","59","2","","e","313","334","","","","false","3.05","1","","Test","21","","4"
"","","","","","","","","","","","html-keyboard-response","428","2.1.0","592444","6617d376619a2b4541498f2c","Prolific","0","","null","","60","2","<p style=""font-size: 70pt;"">+</p>","null","","","","","","","","","","","","",""
"","","","","","","","","","","","Stimulus Presentation","429","2.1.0","592765","6617d376619a2b4541498f2c","Prolific","0","","null","","60","2","","null","334","313","313","21","w","true","3.05","","","","","",""
"","","","","","","","","","","","Stimulus Response","430","2.1.0","593329","6617d376619a2b4541498f2c","Prolific","0","","562","","60","2","","e","","","","","","","","0","","","","",""
"","","","","","","","","","","","Feedback","431","2.1.0","593842","6617d376619a2b4541498f2c","Prolific","0","","null","","60","2","","null","","","","","","","","","","","","",""
"","","","","","","","","","","","Confidence Rating","432","2.1.0","596260","6617d376619a2b4541498f2c","Prolific","0","","2416","","60","2","<h3>Rate your confidence:</h3>
            <div id=""conf1"" class=""conf"" style=""height:25px; width:154px; margin-top:2px; margin-left:15px;""></div>
            <div id=""conf2"" class=""conf"" style=""height:25px; width:154px; margin-top:2px; margin-left:169px;""></div>
            <div id=""conf3"" class=""conf"" style=""height:25px; width:154px; margin-top:2px; margin-left:323px;""></div>
            <div id=""conf4"" class=""conf"" style=""height:25px; width:154px; margin-top:2px; margin-left:477px;""></div>
          <div id=""conf5"" class=""conf"" style=""height:25px; width:154px; margin-top:2px; margin-left:631px;""></div>","4","","","","","","","","","","","","50",""
"","","","","","","","","","","","Summary Trial","433","2.1.0","596262","6617d376619a2b4541498f2c","Prolific","0","","562","","60","2","","e","334","313","","","","true","3.05","0","","Test","21","","4"
"","","","","","","","","","","","html-keyboard-response","435","2.1.0","597273","6617d376619a2b4541498f2c","Prolific","0","","null","","61","2","<p style=""font-size: 70pt;"">+</p>","null","","","","","","","","","","","","",""
"","","","","","","","","","","","Stimulus Presentation","436","2.1.0","597580","6617d376619a2b4541498f2c","Prolific","0","","null","","61","2","","null","336","313","313","23","w","true","3.15","","","","","",""
"","","","","","","","","","","","Stimulus Response","437","2.1.0","598210","6617d376619a2b4541498f2c","Prolific","0","","628","","61","2","","w","","","","","","","","1","","","","",""
"","","","","","","","","","","","Feedback","438","2.1.0","598727","6617d376619a2b4541498f2c","Prolific","0","","null","","61","2","","null","","","","","","","","","","","","",""
"","","","","","","","","","","","Confidence Rating","439","2.1.0","601007","6617d376619a2b4541498f2c","Prolific","0","","2277","","61","2","<h3>Rate your confidence:</h3>
            <div id=""conf1"" class=""conf"" style=""height:25px; width:154px; margin-top:2px; margin-left:15px;""></div>
            <div id=""conf2"" class=""conf"" style=""height:25px; width:154px; margin-top:2px; margin-left:169px;""></div>
            <div id=""conf3"" class=""conf"" style=""height:25px; width:154px; margin-top:2px; margin-left:323px;""></div>
            <div id=""conf4"" class=""conf"" style=""height:25px; width:154px; margin-top:2px; margin-left:477px;""></div>
          <div id=""conf5"" class=""conf"" style=""height:25px; width:154px; margin-top:2px; margin-left:631px;""></div>","3","","","","","","","","","","","","50",""
"","","","","","","","","","","","Summary Trial","440","2.1.0","601008","6617d376619a2b4541498f2c","Prolific","0","","628","","61","2","","w","336","313","","","","true","3.15","1","","Test","23","","3"
"","","","","","","","","","","","html-keyboard-response","442","2.1.0","602025","6617d376619a2b4541498f2c","Prolific","0","","null","","62","2","<p style=""font-size: 70pt;"">+</p>","null","","","","","","","","","","","","",""
"","","","","","","","","","","","Stimulus Presentation","443","2.1.0","602335","6617d376619a2b4541498f2c","Prolific","0","","null","","62","2","","null","313","336","313","23","e","false","3.15","","","","","",""
"","","","","","","","","","","","Stimulus Response","444","2.1.0","603005","6617d376619a2b4541498f2c","Prolific","0","","668","","62","2","","e","","","","","","","","1","","","","",""
"","","","","","","","","","","","Feedback","445","2.1.0","603508","6617d376619a2b4541498f2c","Prolific","0","","null","","62","2","","null","","","","","","","","","","","","",""
"","","","","","","","","","","","Confidence Rating","446","2.1.0","605712","6617d376619a2b4541498f2c","Prolific","0","","2202","","62","2","<h3>Rate your confidence:</h3>
            <div id=""conf1"" class=""conf"" style=""height:25px; width:154px; margin-top:2px; margin-left:15px;""></div>
            <div id=""conf2"" class=""conf"" style=""height:25px; width:154px; margin-top:2px; margin-left:169px;""></div>
            <div id=""conf3"" class=""conf"" style=""height:25px; width:154px; margin-top:2px; margin-left:323px;""></div>
            <div id=""conf4"" class=""conf"" style=""height:25px; width:154px; margin-top:2px; margin-left:477px;""></div>
