"width","height","webaudio","browser","browser_version","mobile","os","fullscreen","vsync_rate","webcam","microphone","trial_type","trial_index","plugin_version","time_elapsed","participant_id","Source","condition","success","rt","view_history","trialnum","blocknum","stimulus","response","leftDots","rightDots","baseline","increment","correct_key","target_left","current_log","correct","value","phase","dot_difference","slider_start","confidence"
"1920","953","true","chrome","135.0.0","false","Windows 10","true","60.66","true","true","browser-check","0","2.1.0","997","65957236b312488ff83e9ad8","Prolific","1","","","","","","","","","","","","","","","","","","","",""
"","","","","","","","","","","","fullscreen","1","2.1.0","16643","65957236b312488ff83e9ad8","Prolific","1","true","14634","","","","","","","","","","","","","","","","","",""
"","","","","","","","","","","","instructions","2","2.1.0","55162","65957236b312488ff83e9ad8","Prolific","1","","38517","[{""page_index"":0,""viewing_time"":38517}]","","","","","","","","","","","","","","","","",""
"","","","","","","","","","","","instructions","5","2.1.0","85976","65957236b312488ff83e9ad8","Prolific","1","","30813","[{""page_index"":0,""viewing_time"":22780},{""page_index"":1,""viewing_time"":8033}]","","","","","","","","","","","","","","","","",""
"","","","","","","","","","","","html-keyboard-response","7","2.1.0","86989","65957236b312488ff83e9ad8","Prolific","1","","null","","1","1","<p style=""font-size: 70pt;"">+</p>","null","","","","","","","","","","","","",""
"","","","","","","","","","","","Stimulus Presentation","8","2.1.0","87302","65957236b312488ff83e9ad8","Prolific","1","","null","","1","1","","null","383","313","313","70","w","true","4.25","","","","","",""
"","","","","","","","","","","","Stimulus Response","9","2.1.0","91538","65957236b312488ff83e9ad8","Prolific","1","","4234","","1","1","","e","","","","","","","","0","","","","",""
"","","","","","","","","","","","Feedback","10","2.1.0","92050","65957236b312488ff83e9ad8","Prolific","1","","null","","1","1","","null","","","","","","","","","","","","",""
"","","","","","","","","","","","Summary Trial","12","2.1.0","92062","65957236b312488ff83e9ad8","Prolific","1","","4234","","1","1","","e","383","313","","","","true","4.25","0","","Practice","70","",""
"","","","","","","","","","","","html-keyboard-response","14","2.1.0","93077","65957236b312488ff83e9ad8","Prolific","1","","null","","2","1","<p style=""font-size: 70pt;"">+</p>","null","","","","","","","","","","","","",""
"","","","","","","","","","","","Stimulus Presentation","15","2.1.0","93404","65957236b312488ff83e9ad8","Prolific","1","","null","","2","1","","null","313","418","313","105","e","false","4.65","","","","","",""
"","","","","","","","","","","","Stimulus Response","16","2.1.0","94324","65957236b312488ff83e9ad8","Prolific","1","","919","","2","1","","e","","","","","","","","1","","","","",""
"","","","","","","","","","","","Feedback","17","2.1.0","94837","65957236b312488ff83e9ad8","Prolific","1","","null","","2","1","","null","","","","","","","","","","","","",""
"","","","","","","","","","","","Summary Trial","19","2.1.0","94837","65957236b312488ff83e9ad8","Prolific","1","","919","","2","1","","e","313","418","","","","false","4.65","1","","Practice","105","",""
"","","","","","","","","","","","html-keyboard-response","21","2.1.0","95852","65957236b312488ff83e9ad8","Prolific","1","","null","","3","1","<p style=""font-size: 70pt;"">+</p>","null","","","","","","","","","","","","",""
"","","","","","","","","","","","Stimulus Presentation","22","2.1.0","96163","65957236b312488ff83e9ad8","Prolific","1","","null","","3","1","","null","313","418","313","105","e","false","4.65","","","","","",""
"","","","","","","","","","","","Stimulus Response","23","2.1.0","96615","65957236b312488ff83e9ad8","Prolific","1","","451","","3","1","","e","","","","","","","","1","","","","",""
"","","","","","","","","","","","Feedback","24","2.1.0","97134","65957236b312488ff83e9ad8","Prolific","1","","null","","3","1","","null","","","","","","","","","","","","",""
"","","","","","","","","","","","Summary Trial","26","2.1.0","97135","65957236b312488ff83e9ad8","Prolific","1","","451","","3","1","","e","313","418","","","","false","4.65","1","","Practice","105","",""
"","","","","","","","","","","","html-keyboard-response","28","2.1.0","98146","65957236b312488ff83e9ad8","Prolific","1","","null","","4","1","<p style=""font-size: 70pt;"">+</p>","null","","","","","","","","","","","","",""
"","","","","","","","","","","","Stimulus Presentation","29","2.1.0","98455","65957236b312488ff83e9ad8","Prolific","1","","null","","4","1","","null","383","313","313","70","w","true","4.25","","","","","",""
"","","","","","","","","","","","Stimulus Response","30","2.1.0","99016","65957236b312488ff83e9ad8","Prolific","1","","560","","4","1","","w","","","","","","","","1","","","","",""
"","","","","","","","","","","","Feedback","31","2.1.0","99530","65957236b312488ff83e9ad8","Prolific","1","","null","","4","1","","null","","","","","","","","","","","","",""
"","","","","","","","","","","","Summary Trial","33","2.1.0","99531","65957236b312488ff83e9ad8","Prolific","1","","560","","4","1","","w","383","313","","","","true","4.25","1","","Practice","70","",""
"","","","","","","","","","","","html-keyboard-response","35","2.1.0","100545","65957236b312488ff83e9ad8","Prolific","1","","null","","5","1","<p style=""font-size: 70pt;"">+</p>","null","","","","","","","","","","","","",""
"","","","","","","","","","","","Stimulus Presentation","36","2.1.0","100855","65957236b312488ff83e9ad8","Prolific","1","","null","","5","1","","null","383","313","313","70","w","true","4.25","","","","","",""
"","","","","","","","","","","","Stimulus Response","37","2.1.0","101335","65957236b312488ff83e9ad8","Prolific","1","","471","","5","1","","w","","","","","","","","1","","","","",""
"","","","","","","","","","","","Feedback","38","2.1.0","101850","65957236b312488ff83e9ad8","Prolific","1","","null","","5","1","","null","","","","","","","","","","","","",""
"","","","","","","","","","","","Summary Trial","40","2.1.0","101851","65957236b312488ff83e9ad8","Prolific","1","","471","","5","1","","w","383","313","","","","true","4.25","1","","Practice","70","",""
"","","","","","","","","","","","html-keyboard-response","42","2.1.0","102863","65957236b312488ff83e9ad8","Prolific","1","","null","","6","1","<p style=""font-size: 70pt;"">+</p>","null","","","","","","","","","","","","",""
"","","","","","","","","","","","Stimulus Presentation","43","2.1.0","103175","65957236b312488ff83e9ad8","Prolific","1","","null","","6","1","","null","313","360","313","47","e","false","3.85","","","","","",""
"","","","","","","","","","","","Stimulus Response","44","2.1.0","103542","65957236b312488ff83e9ad8","Prolific","1","","365","","6","1","","e","","","","","","","","1","","","","",""
"","","","","","","","","","","","Feedback","45","2.1.0","104058","65957236b312488ff83e9ad8","Prolific","1","","null","","6","1","","null","","","","","","","","","","","","",""
"","","","","","","","","","","","Summary Trial","47","2.1.0","104059","65957236b312488ff83e9ad8","Prolific","1","","365","","6","1","","e","313","360","","","","false","3.85","1","","Practice","47","",""
"","","","","","","","","","","","html-keyboard-response","49","2.1.0","105071","65957236b312488ff83e9ad8","Prolific","1","","null","","7","1","<p style=""font-size: 70pt;"">+</p>","null","","","","","","","","","","","","",""
"","","","","","","","","","","","Stimulus Presentation","50","2.1.0","105398","65957236b312488ff83e9ad8","Prolific","1","","null","","7","1","","null","313","360","313","47","e","false","3.85","","","","","",""
"","","","","","","","","","","","Stimulus Response","51","2.1.0","105961","65957236b312488ff83e9ad8","Prolific","1","","562","","7","1","","e","","","","","","","","1","","","","",""
"","","","","","","","","","","","Feedback","52","2.1.0","106468","65957236b312488ff83e9ad8","Prolific","1","","null","","7","1","","null","","","","","","","","","","","","",""
"","","","","","","","","","","","Summary Trial","54","2.1.0","106469","65957236b312488ff83e9ad8","Prolific","1","","562","","7","1","","e","313","360","","","","false","3.85","1","","Practice","47","",""
"","","","","","","","","","","","html-keyboard-response","56","2.1.0","107479","65957236b312488ff83e9ad8","Prolific","1","","null","","8","1","<p style=""font-size: 70pt;"">+</p>","null","","","","","","","","","","","","",""
"","","","","","","","","","","","Stimulus Presentation","57","2.1.0","107790","65957236b312488ff83e9ad8","Prolific","1","","null","","8","1","","null","351","313","313","38","w","true","3.65","","","","","",""
"","","","","","","","","","","","Stimulus Response","58","2.1.0","108330","65957236b312488ff83e9ad8","Prolific","1","","538","","8","1","","w","","","","","","","","1","","","","",""
"","","","","","","","","","","","Feedback","59","2.1.0","108849","65957236b312488ff83e9ad8","Prolific","1","","null","","8","1","","null","","","","","","","","","","","","",""
"","","","","","","","","","","","Summary Trial","61","2.1.0","108850","65957236b312488ff83e9ad8","Prolific","1","","538","","8","1","","w","351","313","","","","true","3.65","1","","Practice","38","",""
"","","","","","","","","","","","html-keyboard-response","63","2.1.0","109862","65957236b312488ff83e9ad8","Prolific","1","","null","","9","1","<p style=""font-size: 70pt;"">+</p>","null","","","","","","","","","","","","",""
"","","","","","","","","","","","Stimulus Presentation","64","2.1.0","110173","65957236b312488ff83e9ad8","Prolific","1","","null","","9","1","","null","313","351","313","38","e","false","3.65","","","","","",""
"","","","","","","","","","","","Stimulus Response","65","2.1.0","110578","65957236b312488ff83e9ad8","Prolific","1","","404","","9","1","","e","","","","","","","","1","","","","",""
"","","","","","","","","","","","Feedback","66","2.1.0","111092","65957236b312488ff83e9ad8","Prolific","1","","null","","9","1","","null","","","","","","","","","","","","",""
"","","","","","","","","","","","Summary Trial","68","2.1.0","111093","65957236b312488ff83e9ad8","Prolific","1","","404","","9","1","","e","313","351","","","","false","3.65","1","","Practice","38","",""
"","","","","","","","","","","","html-keyboard-response","70","2.1.0","112110","65957236b312488ff83e9ad8","Prolific","1","","null","","10","1","<p style=""font-size: 70pt;"">+</p>","null","","","","","","","","","","","","",""
"","","","","","","","","","","","Stimulus Presentation","71","2.1.0","112419","65957236b312488ff83e9ad8","Prolific","1","","null","","10","1","","null","345","313","313","32","w","true","3.4499999999999997","","","","","",""
"","","","","","","","","","","","Stimulus Response","72","2.1.0","112866","65957236b312488ff83e9ad8","Prolific","1","","444","","10","1","","e","","","","","","","","0","","","","",""
"","","","","","","","","","","","Feedback","73","2.1.0","113367","65957236b312488ff83e9ad8","Prolific","1","","null","","10","1","","null","","","","","","","","","","","","",""
"","","","","","","","","","","","Summary Trial","75","2.1.0","113368","65957236b312488ff83e9ad8","Prolific","1","","444","","10","1","","e","345","313","","","","true","3.4499999999999997","0","","Practice","32","",""
"","","","","","","","","","","","html-keyboard-response","77","2.1.0","114382","65957236b312488ff83e9ad8","Prolific","1","","null","","11","1","<p style=""font-size: 70pt;"">+</p>","null","","","","","","","","","","","","",""
"","","","","","","","","","","","Stimulus Presentation","78","2.1.0","114691","65957236b312488ff83e9ad8","Prolific","1","","null","","11","1","","null","351","313","313","38","w","true","3.65","","","","","",""
"","","","","","","","","","","","Stimulus Response","79","2.1.0","115046","65957236b312488ff83e9ad8","Prolific","1","","354","","11","1","","e","","","","","","","","0","","","","",""
"","","","","","","","","","","","Feedback","80","2.1.0","115550","65957236b312488ff83e9ad8","Prolific","1","","null","","11","1","","null","","","","","","","","","","","","",""
"","","","","","","","","","","","Summary Trial","82","2.1.0","115551","65957236b312488ff83e9ad8","Prolific","1","","354","","11","1","","e","351","313","","","","true","3.65","0","","Practice","38","",""
"","","","","","","","","","","","html-keyboard-response","84","2.1.0","116565","65957236b312488ff83e9ad8","Prolific","1","","null","","12","1","<p style=""font-size: 70pt;"">+</p>","null","","","","","","","","","","","","",""
"","","","","","","","","","","","Stimulus Presentation","85","2.1.0","116889","65957236b312488ff83e9ad8","Prolific","1","","null","","12","1","","null","313","356","313","43","e","false","3.75","","","","","",""
"","","","","","","","","","","","Stimulus Response","86","2.1.0","116986","65957236b312488ff83e9ad8","Prolific","1","","96","","12","1","","e","","","","","","","","1","","","","",""
"","","","","","","","","","","","Feedback","87","2.1.0","117496","65957236b312488ff83e9ad8","Prolific","1","","null","","12","1","","null","","","","","","","","","","","","",""
"","","","","","","","","","","","Summary Trial","89","2.1.0","117497","65957236b312488ff83e9ad8","Prolific","1","","96","","12","1","","e","313","356","","","","false","3.75","1","","Practice","43","",""
"","","","","","","","","","","","html-keyboard-response","91","2.1.0","118507","65957236b312488ff83e9ad8","Prolific","1","","null","","13","1","<p style=""font-size: 70pt;"">+</p>","null","","","","","","","","","","","","",""
"","","","","","","","","","","","Stimulus Presentation","92","2.1.0","118818","65957236b312488ff83e9ad8","Prolific","1","","null","","13","1","","null","356","313","313","43","w","true","3.75","","","","","",""
"","","","","","","","","","","","Stimulus Response","93","2.1.0","118960","65957236b312488ff83e9ad8","Prolific","1","","141","","13","1","","e","","","","","","","","0","","","","",""
"","","","","","","","","","","","Feedback","94","2.1.0","119473","65957236b312488ff83e9ad8","Prolific","1","","null","","13","1","","null","","","","","","","","","","","","",""
"","","","","","","","","","","","Summary Trial","96","2.1.0","119474","65957236b312488ff83e9ad8","Prolific","1","","141","","13","1","","e","356","313","","","","true","3.75","0","","Practice","43","",""
"","","","","","","","","","","","html-keyboard-response","98","2.1.0","120488","65957236b312488ff83e9ad8","Prolific","1","","null","","14","1","<p style=""font-size: 70pt;"">+</p>","null","","","","","","","","","","","","",""
"","","","","","","","","","","","Stimulus Presentation","99","2.1.0","120796","65957236b312488ff83e9ad8","Prolific","1","","null","","14","1","","null","313","360","313","47","e","false","3.85","","","","","",""
"","","","","","","","","","","","Stimulus Response","100","2.1.0","120958","65957236b312488ff83e9ad8","Prolific","1","","161","","14","1","","e","","","","","","","","1","","","","",""
"","","","","","","","","","","","Feedback","101","2.1.0","121463","65957236b312488ff83e9ad8","Prolific","1","","null","","14","1","","null","","","","","","","","","","","","",""
"","","","","","","","","","","","Summary Trial","103","2.1.0","121463","65957236b312488ff83e9ad8","Prolific","1","","161","","14","1","","e","313","360","","","","false","3.85","1","","Practice","47","",""
"","","","","","","","","","","","html-keyboard-response","105","2.1.0","122475","65957236b312488ff83e9ad8","Prolific","1","","null","","15","1","<p style=""font-size: 70pt;"">+</p>","null","","","","","","","","","","","","",""
"","","","","","","","","","","","Stimulus Presentation","106","2.1.0","122786","65957236b312488ff83e9ad8","Prolific","1","","null","","15","1","","null","313","360","313","47","e","false","3.85","","","","","",""
"","","","","","","","","","","","Stimulus Response","107","2.1.0","123777","65957236b312488ff83e9ad8","Prolific","1","","990","","15","1","","e","","","","","","","","1","","","","",""
"","","","","","","","","","","","Feedback","108","2.1.0","124279","65957236b312488ff83e9ad8","Prolific","1","","null","","15","1","","null","","","","","","","","","","","","",""
"","","","","","","","","","","","Summary Trial","110","2.1.0","124280","65957236b312488ff83e9ad8","Prolific","1","","990","","15","1","","e","313","360","","","","false","3.85","1","","Practice","47","",""
"","","","","","","","","","","","html-keyboard-response","112","2.1.0","125295","65957236b312488ff83e9ad8","Prolific","1","","null","","16","1","<p style=""font-size: 70pt;"">+</p>","null","","","","","","","","","","","","",""
"","","","","","","","","","","","Stimulus Presentation","113","2.1.0","125607","65957236b312488ff83e9ad8","Prolific","1","","null","","16","1","","null","356","313","313","43","w","true","3.75","","","","","",""
"","","","","","","","","","","","Stimulus Response","114","2.1.0","125993","65957236b312488ff83e9ad8","Prolific","1","","385","","16","1","","w","","","","","","","","1","","","","",""
"","","","","","","","","","","","Feedback","115","2.1.0","126495","65957236b312488ff83e9ad8","Prolific","1","","null","","16","1","","null","","","","","","","","","","","","",""
"","","","","","","","","","","","Summary Trial","117","2.1.0","126496","65957236b312488ff83e9ad8","Prolific","1","","385","","16","1","","w","356","313","","","","true","3.75","1","","Practice","43","",""
"","","","","","","","","","","","html-keyboard-response","119","2.1.0","127505","65957236b312488ff83e9ad8","Prolific","1","","null","","17","1","<p style=""font-size: 70pt;"">+</p>","null","","","","","","","","","","","","",""
"","","","","","","","","","","","Stimulus Presentation","120","2.1.0","127830","65957236b312488ff83e9ad8","Prolific","1","","null","","17","1","","null","356","313","313","43","w","true","3.75","","","","","",""
"","","","","","","","","","","","Stimulus Response","121","2.1.0","128080","65957236b312488ff83e9ad8","Prolific","1","","248","","17","1","","w","","","","","","","","1","","","","",""
"","","","","","","","","","","","Feedback","122","2.1.0","128594","65957236b312488ff83e9ad8","Prolific","1","","null","","17","1","","null","","","","","","","","","","","","",""
"","","","","","","","","","","","Summary Trial","124","2.1.0","128595","65957236b312488ff83e9ad8","Prolific","1","","248","","17","1","","w","356","313","","","","true","3.75","1","","Practice","43","",""
"","","","","","","","","","","","html-keyboard-response","126","2.1.0","129607","65957236b312488ff83e9ad8","Prolific","1","","null","","18","1","<p style=""font-size: 70pt;"">+</p>","null","","","","","","","","","","","","",""
"","","","","","","","","","","","Stimulus Presentation","127","2.1.0","129919","65957236b312488ff83e9ad8","Prolific","1","","null","","18","1","","null","313","351","313","38","e","false","3.65","","","","","",""
"","","","","","","","","","","","Stimulus Response","128","2.1.0","130118","65957236b312488ff83e9ad8","Prolific","1","","197","","18","1","","e","","","","","","","","1","","","","",""
"","","","","","","","","","","","Feedback","129","2.1.0","130622","65957236b312488ff83e9ad8","Prolific","1","","null","","18","1","","null","","","","","","","","","","","","",""
"","","","","","","","","","","","Summary Trial","131","2.1.0","130623","65957236b312488ff83e9ad8","Prolific","1","","197","","18","1","","e","313","351","","","","false","3.65","1","","Practice","38","",""
"","","","","","","","","","","","html-keyboard-response","133","2.1.0","131635","65957236b312488ff83e9ad8","Prolific","1","","null","","19","1","<p style=""font-size: 70pt;"">+</p>","null","","","","","","","","","","","","",""
"","","","","","","","","","","","Stimulus Presentation","134","2.1.0","131945","65957236b312488ff83e9ad8","Prolific","1","","null","","19","1","","null","351","313","313","38","w","true","3.65","","","","","",""
"","","","","","","","","","","","Stimulus Response","135","2.1.0","132340","65957236b312488ff83e9ad8","Prolific","1","","394","","19","1","","w","","","","","","","","1","","","","",""
"","","","","","","","","","","","Feedback","136","2.1.0","132851","65957236b312488ff83e9ad8","Prolific","1","","null","","19","1","","null","","","","","","","","","","","","",""
"","","","","","","","","","","","Summary Trial","138","2.1.0","132852","65957236b312488ff83e9ad8","Prolific","1","","394","","19","1","","w","351","313","","","","true","3.65","1","","Practice","38","",""
"","","","","","","","","","","","html-keyboard-response","140","2.1.0","133866","65957236b312488ff83e9ad8","Prolific","1","","null","","20","1","<p style=""font-size: 70pt;"">+</p>","null","","","","","","","","","","","","",""
"","","","","","","","","","","","Stimulus Presentation","141","2.1.0","134175","65957236b312488ff83e9ad8","Prolific","1","","null","","20","1","","null","313","348","313","35","e","false","3.55","","","","","",""
"","","","","","","","","","","","Stimulus Response","142","2.1.0","134434","65957236b312488ff83e9ad8","Prolific","1","","257","","20","1","","w","","","","","","","","0","","","","",""
"","","","","","","","","","","","Feedback","143","2.1.0","134939","65957236b312488ff83e9ad8","Prolific","1","","null","","20","1","","null","","","","","","","","","","","","",""
"","","","","","","","","","","","Summary Trial","145","2.1.0","134940","65957236b312488ff83e9ad8","Prolific","1","","257","","20","1","","w","313","348","","","","false","3.55","0","","Practice","35","",""
"","","","","","","","","","","","html-keyboard-response","147","2.1.0","135952","65957236b312488ff83e9ad8","Prolific","1","","null","","21","1","<p style=""font-size: 70pt;"">+</p>","null","","","","","","","","","","","","",""
"","","","","","","","","","","","Stimulus Presentation","148","2.1.0","136260","65957236b312488ff83e9ad8","Prolific","1","","null","","21","1","","null","313","351","313","38","e","false","3.65","","","","","",""
"","","","","","","","","","","","Stimulus Response","149","2.1.0","136343","65957236b312488ff83e9ad8","Prolific","1","","81","","21","1","","e","","","","","","","","1","","","","",""
"","","","","","","","","","","","Feedback","150","2.1.0","136855","65957236b312488ff83e9ad8","Prolific","1","","null","","21","1","","null","","","","","","","","","","","","",""
"","","","","","","","","","","","Summary Trial","152","2.1.0","136856","65957236b312488ff83e9ad8","Prolific","1","","81","","21","1","","e","313","351","","","","false","3.65","1","","Practice","38","",""
"","","","","","","","","","","","html-keyboard-response","154","2.1.0","137865","65957236b312488ff83e9ad8","Prolific","1","","null","","22","1","<p style=""font-size: 70pt;"">+</p>","null","","","","","","","","","","","","",""
"","","","","","","","","","","","Stimulus Presentation","155","2.1.0","138175","65957236b312488ff83e9ad8","Prolific","1","","null","","22","1","","null","351","313","313","38","w","true","3.65","","","","","",""
"","","","","","","","","","","","Stimulus Response","156","2.1.0","138346","65957236b312488ff83e9ad8","Prolific","1","","170","","22","1","","e","","","","","","","","0","","","","",""
"","","","","","","","","","","","Feedback","157","2.1.0","138861","65957236b312488ff83e9ad8","Prolific","1","","null","","22","1","","null","","","","","","","","","","","","",""
"","","","","","","","","","","","Summary Trial","159","2.1.0","138862","65957236b312488ff83e9ad8","Prolific","1","","170","","22","1","","e","351","313","","","","true","3.65","0","","Practice","38","",""
"","","","","","","","","","","","html-keyboard-response","161","2.1.0","139871","65957236b312488ff83e9ad8","Prolific","1","","null","","23","1","<p style=""font-size: 70pt;"">+</p>","null","","","","","","","","","","","","",""
"","","","","","","","","","","","Stimulus Presentation","162","2.1.0","140183","65957236b312488ff83e9ad8","Prolific","1","","null","","23","1","","null","356","313","313","43","w","true","3.75","","","","","",""
"","","","","","","","","","","","Stimulus Response","163","2.1.0","140286","65957236b312488ff83e9ad8","Prolific","1","","102","","23","1","","e","","","","","","","","0","","","","",""
"","","","","","","","","","","","Feedback","164","2.1.0","140806","65957236b312488ff83e9ad8","Prolific","1","","null","","23","1","","null","","","","","","","","","","","","",""
"","","","","","","","","","","","Summary Trial","166","2.1.0","140807","65957236b312488ff83e9ad8","Prolific","1","","102","","23","1","","e","356","313","","","","true","3.75","0","","Practice","43","",""
"","","","","","","","","","","","html-keyboard-response","168","2.1.0","141816","65957236b312488ff83e9ad8","Prolific","1","","null","","24","1","<p style=""font-size: 70pt;"">+</p>","null","","","","","","","","","","","","",""
"","","","","","","","","","","","Stimulus Presentation","169","2.1.0","142127","65957236b312488ff83e9ad8","Prolific","1","","null","","24","1","","null","313","360","313","47","e","false","3.85","","","","","",""
"","","","","","","","","","","","Stimulus Response","170","2.1.0","142937","65957236b312488ff83e9ad8","Prolific","1","","809","","24","1","","w","","","","","","","","0","","","","",""
"","","","","","","","","","","","Feedback","171","2.1.0","143440","65957236b312488ff83e9ad8","Prolific","1","","null","","24","1","","null","","","","","","","","","","","","",""
"","","","","","","","","","","","Summary Trial","173","2.1.0","143441","65957236b312488ff83e9ad8","Prolific","1","","809","","24","1","","w","313","360","","","","false","3.85","0","","Practice","47","",""
"","","","","","","","","","","","html-keyboard-response","175","2.1.0","144447","65957236b312488ff83e9ad8","Prolific","1","","null","","25","1","<p style=""font-size: 70pt;"">+</p>","null","","","","","","","","","","","","",""
"","","","","","","","","","","","Stimulus Presentation","176","2.1.0","144758","65957236b312488ff83e9ad8","Prolific","1","","null","","25","1","","null","313","365","313","52","e","false","3.95","","","","","",""
"","","","","","","","","","","","Stimulus Response","177","2.1.0","144895","65957236b312488ff83e9ad8","Prolific","1","","136","","25","1","","e","","","","","","","","1","","","","",""
"","","","","","","","","","","","Feedback","178","2.1.0","145397","65957236b312488ff83e9ad8","Prolific","1","","null","","25","1","","null","","","","","","","","","","","","",""
"","","","","","","","","","","","Summary Trial","180","2.1.0","145398","65957236b312488ff83e9ad8","Prolific","1","","136","","25","1","","e","313","365","","","","false","3.95","1","","Practice","52","",""
"","","","","","","","","","","","html-keyboard-response","182","2.1.0","146411","65957236b312488ff83e9ad8","Prolific","1","","null","","26","1","<p style=""font-size: 70pt;"">+</p>","null","","","","","","","","","","","","",""
"","","","","","","","","","","","Stimulus Presentation","183","2.1.0","146723","65957236b312488ff83e9ad8","Prolific","1","","null","","26","1","","null","365","313","313","52","w","true","3.95","","","","","",""
"","","","","","","","","","","","Stimulus Response","184","2.1.0","146874","65957236b312488ff83e9ad8","Prolific","1","","150","","26","1","","e","","","","","","","","0","","","","",""
"","","","","","","","","","","","Feedback","185","2.1.0","147380","65957236b312488ff83e9ad8","Prolific","1","","null","","26","1","","null","","","","","","","","","","","","",""
"","","","","","","","","","","","Summary Trial","187","2.1.0","147381","65957236b312488ff83e9ad8","Prolific","1","","150","","26","1","","e","365","313","","","","true","3.95","0","","Practice","52","",""
"","","","","","","","","","","","instructions","188","2.1.0","153579","65957236b312488ff83e9ad8","Prolific","1","","6196","[{""page_index"":0,""viewing_time"":6196}]","","","","","","","","","","","","","","","","",""
"","","","","","","","","","","","Confidence Rating","189","2.1.0","159181","65957236b312488ff83e9ad8","Prolific","1","","5601","","","","A rating scale as shown below is used throughout the task. 
        You will select any point with your mouse.<br>Choose any point on the 
          scale and click &apos;Submit&apos; to continue.<br><br>
            <div id=""conf1"" class=""conf"" style=""height:25px; width:154px; margin-top:2px; margin-left:15px;""></div>
            <div id=""conf2"" class=""conf"" style=""height:25px; width:154px; margin-top:2px; margin-left:169px;""></div>
            <div id=""conf3"" class=""conf"" style=""height:25px; width:154px; margin-top:2px; margin-left:323px;""></div>
            <div id=""conf4"" class=""conf"" style=""height:25px; width:154px; margin-top:2px; margin-left:477px;""></div>
     <div id=""conf5"" class=""conf"" style=""height:25px; width:154px; margin-top:2px; margin-left:631px;""></div>","2","","","","","","","","","","","","50",""
"","","","","","","","","","","","Confidence Rating","190","2.1.0","161872","65957236b312488ff83e9ad8","Prolific","1","","2690","","","","During the task, if you are <strong>very sure</strong> that you made the correct judgement, you should respond <strong>&apos;Certain&apos;</strong><br><br>
            <div id=""conf1"" class=""conf"" style=""height:25px; width:154px; margin-top:2px; margin-left:15px;""></div>
            <div id=""conf2"" class=""conf"" style=""height:25px; width:154px; margin-top:2px; margin-left:169px;""></div>
            <div id=""conf3"" class=""conf"" style=""height:25px; width:154px; margin-top:2px; margin-left:323px;""></div>
            <div id=""conf4"" class=""conf"" style=""height:25px; width:154px; margin-top:2px; margin-left:477px;""></div>
   <div id=""conf5"" class=""conf"" style=""height:25px; width:154px; margin-top:2px; margin-left:631px;""></div>","6","","","","","","","","","","","","50",""
"","","","","","","","","","","","Confidence Rating","191","2.1.0","163525","65957236b312488ff83e9ad8","Prolific","1","","1653","","","","If you are <strong>very unsure</strong> you made the correct judgement, you should respond <strong>&apos;Guessing&apos;</strong><br><br>
            <div id=""conf1"" class=""conf"" style=""height:25px; width:154px; margin-top:2px; margin-left:15px;""></div>
            <div id=""conf2"" class=""conf"" style=""height:25px; width:154px; margin-top:2px; margin-left:169px;""></div>
            <div id=""conf3"" class=""conf"" style=""height:25px; width:154px; margin-top:2px; margin-left:323px;""></div>
            <div id=""conf4"" class=""conf"" style=""height:25px; width:154px; margin-top:2px; margin-left:477px;""></div>
 <div id=""conf5"" class=""conf"" style=""height:25px; width:154px; margin-top:2px; margin-left:631px;""></div>","1","","","","","","","","","","","","1",""
"","","","","","","","","","","","Confidence Rating","192","2.1.0","165752","65957236b312488ff83e9ad8","Prolific","1","","2222","","","","If you are <strong>somewhat sure</strong> about being correct, you should select a rating between the two descriptions.<br><br>
            <div id=""conf1"" class=""conf"" style=""height:25px; width:154px; margin-top:2px; margin-left:15px;""></div>
            <div id=""conf2"" class=""conf"" style=""height:25px; width:154px; margin-top:2px; margin-left:169px;""></div>
            <div id=""conf3"" class=""conf"" style=""height:25px; width:154px; margin-top:2px; margin-left:323px;""></div>
            <div id=""conf4"" class=""conf"" style=""height:25px; width:154px; margin-top:2px; margin-left:477px;""></div>
 <div id=""conf5"" class=""conf"" style=""height:25px; width:154px; margin-top:2px; margin-left:631px;""></div>","4","","","","","","","","","","","","4",""
"","","","","","","","","","","","Confidence Rating","193","2.1.0","178757","65957236b312488ff83e9ad8","Prolific","1","","13004","","","","If you understand how to use and take advantage of the whole rating scale, choose any point on the rating scale and click &apos;Submit&apos; to continue.<br><br>
            <div id=""conf1"" class=""conf"" style=""height:25px; width:154px; margin-top:2px; margin-left:15px;""></div>
            <div id=""conf2"" class=""conf"" style=""height:25px; width:154px; margin-top:2px; margin-left:169px;""></div>
            <div id=""conf3"" class=""conf"" style=""height:25px; width:154px; margin-top:2px; margin-left:323px;""></div>
            <div id=""conf4"" class=""conf"" style=""height:25px; width:154px; margin-top:2px; margin-left:477px;""></div>
 <div id=""conf5"" class=""conf"" style=""height:25px; width:154px; margin-top:2px; margin-left:631px;""></div>","4","","","","","","","","","","","","50",""
"","","","","","","","","","","","instructions","194","2.1.0","188539","65957236b312488ff83e9ad8","Prolific","1","","9781","[{""page_index"":0,""viewing_time"":9781}]","","","","","","","","","","","","","","","","",""
"","","","","","","","","","","","instructions","195","2.1.0","192120","65957236b312488ff83e9ad8","Prolific","1","","3580","[{""page_index"":0,""viewing_time"":3580}]","","","","","","","","","","","","","","","","",""
"","","","","","","","","","","","html-keyboard-response","197","2.1.0","193133","65957236b312488ff83e9ad8","Prolific","1","","null","","27","2","<p style=""font-size: 70pt;"">+</p>","null","","","","","","","","","","","","",""
"","","","","","","","","","","","Stimulus Presentation","198","2.1.0","193445","65957236b312488ff83e9ad8","Prolific","1","","null","","27","2","","null","313","370","313","57","e","false","4.05","","","","","",""
"","","","","","","","","","","","Stimulus Response","199","2.1.0","193875","65957236b312488ff83e9ad8","Prolific","1","","430","","27","2","","e","","","","","","","","1","","","","",""
"","","","","","","","","","","","Feedback","200","2.1.0","194379","65957236b312488ff83e9ad8","Prolific","1","","null","","27","2","","null","","","","","","","","","","","","",""
"","","","","","","","","","","","Confidence Rating","201","2.1.0","197105","65957236b312488ff83e9ad8","Prolific","1","","2725","","27","2","<h3>Rate your confidence:</h3>
            <div id=""conf1"" class=""conf"" style=""height:25px; width:154px; margin-top:2px; margin-left:15px;""></div>
            <div id=""conf2"" class=""conf"" style=""height:25px; width:154px; margin-top:2px; margin-left:169px;""></div>
            <div id=""conf3"" class=""conf"" style=""height:25px; width:154px; margin-top:2px; margin-left:323px;""></div>
            <div id=""conf4"" class=""conf"" style=""height:25px; width:154px; margin-top:2px; margin-left:477px;""></div>
          <div id=""conf5"" class=""conf"" style=""height:25px; width:154px; margin-top:2px; margin-left:631px;""></div>","2","","","","","","","","","","","","50",""
"","","","","","","","","","","","Summary Trial","202","2.1.0","197106","65957236b312488ff83e9ad8","Prolific","1","","430","","27","2","","e","313","370","","","","false","4.05","1","","Test","57","","2"
"","","","","","","","","","","","html-keyboard-response","204","2.1.0","198114","65957236b312488ff83e9ad8","Prolific","1","","null","","28","2","<p style=""font-size: 70pt;"">+</p>","null","","","","","","","","","","","","",""
"","","","","","","","","","","","Stimulus Presentation","205","2.1.0","198424","65957236b312488ff83e9ad8","Prolific","1","","null","","28","2","","null","370","313","313","57","w","true","4.05","","","","","",""
"","","","","","","","","","","","Stimulus Response","206","2.1.0","198983","65957236b312488ff83e9ad8","Prolific","1","","557","","28","2","","w","","","","","","","","1","","","","",""
"","","","","","","","","","","","Feedback","207","2.1.0","199497","65957236b312488ff83e9ad8","Prolific","1","","null","","28","2","","null","","","","","","","","","","","","",""
"","","","","","","","","","","","Confidence Rating","208","2.1.0","201586","65957236b312488ff83e9ad8","Prolific","1","","2088","","28","2","<h3>Rate your confidence:</h3>
            <div id=""conf1"" class=""conf"" style=""height:25px; width:154px; margin-top:2px; margin-left:15px;""></div>
            <div id=""conf2"" class=""conf"" style=""height:25px; width:154px; margin-top:2px; margin-left:169px;""></div>
            <div id=""conf3"" class=""conf"" style=""height:25px; width:154px; margin-top:2px; margin-left:323px;""></div>
            <div id=""conf4"" class=""conf"" style=""height:25px; width:154px; margin-top:2px; margin-left:477px;""></div>
          <div id=""conf5"" class=""conf"" style=""height:25px; width:154px; margin-top:2px; margin-left:631px;""></div>","4","","","","","","","","","","","","50",""
"","","","","","","","","","","","Summary Trial","209","2.1.0","201587","65957236b312488ff83e9ad8","Prolific","1","","557","","28","2","","w","370","313","","","","true","4.05","1","","Test","57","","4"
"","","","","","","","","","","","html-keyboard-response","211","2.1.0","202601","65957236b312488ff83e9ad8","Prolific","1","","null","","29","2","<p style=""font-size: 70pt;"">+</p>","null","","","","","","","","","","","","",""
"","","","","","","","","","","","Stimulus Presentation","212","2.1.0","202911","65957236b312488ff83e9ad8","Prolific","1","","null","","29","2","","null","313","365","313","52","e","false","3.9499999999999997","","","","","",""
"","","","","","","","","","","","Stimulus Response","213","2.1.0","203402","65957236b312488ff83e9ad8","Prolific","1","","490","","29","2","","e","","","","","","","","1","","","","",""
"","","","","","","","","","","","Feedback","214","2.1.0","203905","65957236b312488ff83e9ad8","Prolific","1","","null","","29","2","","null","","","","","","","","","","","","",""
"","","","","","","","","","","","Confidence Rating","215","2.1.0","205595","65957236b312488ff83e9ad8","Prolific","1","","1690","","29","2","<h3>Rate your confidence:</h3>
            <div id=""conf1"" class=""conf"" style=""height:25px; width:154px; margin-top:2px; margin-left:15px;""></div>
            <div id=""conf2"" class=""conf"" style=""height:25px; width:154px; margin-top:2px; margin-left:169px;""></div>
            <div id=""conf3"" class=""conf"" style=""height:25px; width:154px; margin-top:2px; margin-left:323px;""></div>
            <div id=""conf4"" class=""conf"" style=""height:25px; width:154px; margin-top:2px; margin-left:477px;""></div>
          <div id=""conf5"" class=""conf"" style=""height:25px; width:154px; margin-top:2px; margin-left:631px;""></div>","3","","","","","","","","","","","","50",""
"","","","","","","","","","","","Summary Trial","216","2.1.0","205596","65957236b312488ff83e9ad8","Prolific","1","","490","","29","2","","e","313","365","","","","false","3.9499999999999997","1","","Test","52","","3"
"","","","","","","","","","","","html-keyboard-response","218","2.1.0","206600","65957236b312488ff83e9ad8","Prolific","1","","null","","30","2","<p style=""font-size: 70pt;"">+</p>","null","","","","","","","","","","","","",""
"","","","","","","","","","","","Stimulus Presentation","219","2.1.0","206926","65957236b312488ff83e9ad8","Prolific","1","","null","","30","2","","null","365","313","313","52","w","true","3.9499999999999997","","","","","",""
"","","","","","","","","","","","Stimulus Response","220","2.1.0","208293","65957236b312488ff83e9ad8","Prolific","1","","1366","","30","2","","e","","","","","","","","0","","","","",""
"","","","","","","","","","","","Feedback","221","2.1.0","208796","65957236b312488ff83e9ad8","Prolific","1","","null","","30","2","","null","","","","","","","","","","","","",""
"","","","","","","","","","","","Confidence Rating","222","2.1.0","210870","65957236b312488ff83e9ad8","Prolific","1","","2073","","30","2","<h3>Rate your confidence:</h3>
            <div id=""conf1"" class=""conf"" style=""height:25px; width:154px; margin-top:2px; margin-left:15px;""></div>
            <div id=""conf2"" class=""conf"" style=""height:25px; width:154px; margin-top:2px; margin-left:169px;""></div>
            <div id=""conf3"" class=""conf"" style=""height:25px; width:154px; margin-top:2px; margin-left:323px;""></div>
            <div id=""conf4"" class=""conf"" style=""height:25px; width:154px; margin-top:2px; margin-left:477px;""></div>
          <div id=""conf5"" class=""conf"" style=""height:25px; width:154px; margin-top:2px; margin-left:631px;""></div>","2","","","","","","","","","","","","50",""
"","","","","","","","","","","","Summary Trial","223","2.1.0","210871","65957236b312488ff83e9ad8","Prolific","1","","1366","","30","2","","e","365","313","","","","true","3.9499999999999997","0","","Test","52","","2"
"","","","","","","","","","","","html-keyboard-response","225","2.1.0","211882","65957236b312488ff83e9ad8","Prolific","1","","null","","31","2","<p style=""font-size: 70pt;"">+</p>","null","","","","","","","","","","","","",""
"","","","","","","","","","","","Stimulus Presentation","226","2.1.0","212191","65957236b312488ff83e9ad8","Prolific","1","","null","","31","2","","null","313","370","313","57","e","false","4.05","","","","","",""
"","","","","","","","","","","","Stimulus Response","227","2.1.0","212696","65957236b312488ff83e9ad8","Prolific","1","","503","","31","2","","e","","","","","","","","1","","","","",""
"","","","","","","","","","","","Feedback","228","2.1.0","213204","65957236b312488ff83e9ad8","Prolific","1","","null","","31","2","","null","","","","","","","","","","","","",""
"","","","","","","","","","","","Confidence Rating","229","2.1.0","214200","65957236b312488ff83e9ad8","Prolific","1","","996","","31","2","<h3>Rate your confidence:</h3>
            <div id=""conf1"" class=""conf"" style=""height:25px; width:154px; margin-top:2px; margin-left:15px;""></div>
            <div id=""conf2"" class=""conf"" style=""height:25px; width:154px; margin-top:2px; margin-left:169px;""></div>
            <div id=""conf3"" class=""conf"" style=""height:25px; width:154px; margin-top:2px; margin-left:323px;""></div>
            <div id=""conf4"" class=""conf"" style=""height:25px; width:154px; margin-top:2px; margin-left:477px;""></div>
          <div id=""conf5"" class=""conf"" style=""height:25px; width:154px; margin-top:2px; margin-left:631px;""></div>","2","","","","","","","","","","","","50",""
"","","","","","","","","","","","Summary Trial","230","2.1.0","214201","65957236b312488ff83e9ad8","Prolific","1","","503","","31","2","","e","313","370","","","","false","4.05","1","","Test","57","","2"
"","","","","","","","","","","","html-keyboard-response","232","2.1.0","215202","65957236b312488ff83e9ad8","Prolific","1","","null","","32","2","<p style=""font-size: 70pt;"">+</p>","null","","","","","","","","","","","","",""
"","","","","","","","","","","","Stimulus Presentation","233","2.1.0","215504","65957236b312488ff83e9ad8","Prolific","1","","null","","32","2","","null","370","313","313","57","w","true","4.05","","","","","",""
"","","","","","","","","","","","Stimulus Response","234","2.1.0","216297","65957236b312488ff83e9ad8","Prolific","1","","792","","32","2","","w","","","","","","","","1","","","","",""
"","","","","","","","","","","","Feedback","235","2.1.0","216804","65957236b312488ff83e9ad8","Prolific","1","","null","","32","2","","null","","","","","","","","","","","","",""
"","","","","","","","","","","","Confidence Rating","236","2.1.0","218178","65957236b312488ff83e9ad8","Prolific","1","","1372","","32","2","<h3>Rate your confidence:</h3>
            <div id=""conf1"" class=""conf"" style=""height:25px; width:154px; margin-top:2px; margin-left:15px;""></div>
            <div id=""conf2"" class=""conf"" style=""height:25px; width:154px; margin-top:2px; margin-left:169px;""></div>
            <div id=""conf3"" class=""conf"" style=""height:25px; width:154px; margin-top:2px; margin-left:323px;""></div>
            <div id=""conf4"" class=""conf"" style=""height:25px; width:154px; margin-top:2px; margin-left:477px;""></div>
          <div id=""conf5"" class=""conf"" style=""height:25px; width:154px; margin-top:2px; margin-left:631px;""></div>","2","","","","","","","","","","","","50",""
"","","","","","","","","","","","Summary Trial","237","2.1.0","218178","65957236b312488ff83e9ad8","Prolific","1","","792","","32","2","","w","370","313","","","","true","4.05","1","","Test","57","","2"
"","","","","","","","","","","","html-keyboard-response","239","2.1.0","219182","65957236b312488ff83e9ad8","Prolific","1","","null","","33","2","<p style=""font-size: 70pt;"">+</p>","null","","","","","","","","","","","","",""
"","","","","","","","","","","","Stimulus Presentation","240","2.1.0","219495","65957236b312488ff83e9ad8","Prolific","1","","null","","33","2","","null","313","365","313","52","e","false","3.9499999999999997","","","","","",""
"","","","","","","","","","","","Stimulus Response","241","2.1.0","220384","65957236b312488ff83e9ad8","Prolific","1","","887","","33","2","","e","","","","","","","","1","","","","",""
"","","","","","","","","","","","Feedback","242","2.1.0","220888","65957236b312488ff83e9ad8","Prolific","1","","null","","33","2","","null","","","","","","","","","","","","",""
"","","","","","","","","","","","Confidence Rating","243","2.1.0","222438","65957236b312488ff83e9ad8","Prolific","1","","1549","","33","2","<h3>Rate your confidence:</h3>
            <div id=""conf1"" class=""conf"" style=""height:25px; width:154px; margin-top:2px; margin-left:15px;""></div>
            <div id=""conf2"" class=""conf"" style=""height:25px; width:154px; margin-top:2px; margin-left:169px;""></div>
            <div id=""conf3"" class=""conf"" style=""height:25px; width:154px; margin-top:2px; margin-left:323px;""></div>
            <div id=""conf4"" class=""conf"" style=""height:25px; width:154px; margin-top:2px; margin-left:477px;""></div>
          <div id=""conf5"" class=""conf"" style=""height:25px; width:154px; margin-top:2px; margin-left:631px;""></div>","5","","","","","","","","","","","","50",""
"","","","","","","","","","","","Summary Trial","244","2.1.0","222439","65957236b312488ff83e9ad8","Prolific","1","","887","","33","2","","e","313","365","","","","false","3.9499999999999997","1","","Test","52","","5"
"","","","","","","","","","","","html-keyboard-response","246","2.1.0","223445","65957236b312488ff83e9ad8","Prolific","1","","null","","34","2","<p style=""font-size: 70pt;"">+</p>","null","","","","","","","","","","","","",""
"","","","","","","","","","","","Stimulus Presentation","247","2.1.0","223753","65957236b312488ff83e9ad8","Prolific","1","","null","","34","2","","null","365","313","313","52","w","true","3.9499999999999997","","","","","",""
"","","","","","","","","","","","Stimulus Response","248","2.1.0","224905","65957236b312488ff83e9ad8","Prolific","1","","1151","","34","2","","w","","","","","","","","1","","","","",""
"","","","","","","","","","","","Feedback","249","2.1.0","225421","65957236b312488ff83e9ad8","Prolific","1","","null","","34","2","","null","","","","","","","","","","","","",""
"","","","","","","","","","","","Confidence Rating","250","2.1.0","227566","65957236b312488ff83e9ad8","Prolific","1","","2144","","34","2","<h3>Rate your confidence:</h3>
            <div id=""conf1"" class=""conf"" style=""height:25px; width:154px; margin-top:2px; margin-left:15px;""></div>
            <div id=""conf2"" class=""conf"" style=""height:25px; width:154px; margin-top:2px; margin-left:169px;""></div>
            <div id=""conf3"" class=""conf"" style=""height:25px; width:154px; margin-top:2px; margin-left:323px;""></div>
            <div id=""conf4"" class=""conf"" style=""height:25px; width:154px; margin-top:2px; margin-left:477px;""></div>
          <div id=""conf5"" class=""conf"" style=""height:25px; width:154px; margin-top:2px; margin-left:631px;""></div>","2","","","","","","","","","","","","50",""
"","","","","","","","","","","","Summary Trial","251","2.1.0","227567","65957236b312488ff83e9ad8","Prolific","1","","1151","","34","2","","w","365","313","","","","true","3.9499999999999997","1","","Test","52","","2"
"","","","","","","","","","","","html-keyboard-response","253","2.1.0","228569","65957236b312488ff83e9ad8","Prolific","1","","null","","35","2","<p style=""font-size: 70pt;"">+</p>","null","","","","","","","","","","","","",""
"","","","","","","","","","","","Stimulus Presentation","254","2.1.0","228896","65957236b312488ff83e9ad8","Prolific","1","","null","","35","2","","null","360","313","313","47","w","true","3.8499999999999996","","","","","",""
"","","","","","","","","","","","Stimulus Response","255","2.1.0","229850","65957236b312488ff83e9ad8","Prolific","1","","953","","35","2","","w","","","","","","","","1","","","","",""
"","","","","","","","","","","","Feedback","256","2.1.0","230353","65957236b312488ff83e9ad8","Prolific","1","","null","","35","2","","null","","","","","","","","","","","","",""
"","","","","","","","","","","","Confidence Rating","257","2.1.0","231306","65957236b312488ff83e9ad8","Prolific","1","","952","","35","2","<h3>Rate your confidence:</h3>
            <div id=""conf1"" class=""conf"" style=""height:25px; width:154px; margin-top:2px; margin-left:15px;""></div>
            <div id=""conf2"" class=""conf"" style=""height:25px; width:154px; margin-top:2px; margin-left:169px;""></div>
            <div id=""conf3"" class=""conf"" style=""height:25px; width:154px; margin-top:2px; margin-left:323px;""></div>
            <div id=""conf4"" class=""conf"" style=""height:25px; width:154px; margin-top:2px; margin-left:477px;""></div>
          <div id=""conf5"" class=""conf"" style=""height:25px; width:154px; margin-top:2px; margin-left:631px;""></div>","2","","","","","","","","","","","","50",""
"","","","","","","","","","","","Summary Trial","258","2.1.0","231307","65957236b312488ff83e9ad8","Prolific","1","","953","","35","2","","w","360","313","","","","true","3.8499999999999996","1","","Test","47","","2"
"","","","","","","","","","","","html-keyboard-response","260","2.1.0","232308","65957236b312488ff83e9ad8","Prolific","1","","null","","36","2","<p style=""font-size: 70pt;"">+</p>","null","","","","","","","","","","","","",""
"","","","","","","","","","","","Stimulus Presentation","261","2.1.0","232624","65957236b312488ff83e9ad8","Prolific","1","","null","","36","2","","null","313","360","313","47","e","false","3.8499999999999996","","","","","",""
"","","","","","","","","","","","Stimulus Response","262","2.1.0","233143","65957236b312488ff83e9ad8","Prolific","1","","519","","36","2","","e","","","","","","","","1","","","","",""
"","","","","","","","","","","","Feedback","263","2.1.0","233649","65957236b312488ff83e9ad8","Prolific","1","","null","","36","2","","null","","","","","","","","","","","","",""
"","","","","","","","","","","","Confidence Rating","264","2.1.0","234476","65957236b312488ff83e9ad8","Prolific","1","","825","","36","2","<h3>Rate your confidence:</h3>
            <div id=""conf1"" class=""conf"" style=""height:25px; width:154px; margin-top:2px; margin-left:15px;""></div>
            <div id=""conf2"" class=""conf"" style=""height:25px; width:154px; margin-top:2px; margin-left:169px;""></div>
            <div id=""conf3"" class=""conf"" style=""height:25px; width:154px; margin-top:2px; margin-left:323px;""></div>
            <div id=""conf4"" class=""conf"" style=""height:25px; width:154px; margin-top:2px; margin-left:477px;""></div>
          <div id=""conf5"" class=""conf"" style=""height:25px; width:154px; margin-top:2px; margin-left:631px;""></div>","3","","","","","","","","","","","","50",""
"","","","","","","","","","","","Summary Trial","265","2.1.0","234476","65957236b312488ff83e9ad8","Prolific","1","","519","","36","2","","e","313","360","","","","false","3.8499999999999996","1","","Test","47","","3"
"","","","","","","","","","","","html-keyboard-response","267","2.1.0","235491","65957236b312488ff83e9ad8","Prolific","1","","null","","37","2","<p style=""font-size: 70pt;"">+</p>","null","","","","","","","","","","","","",""
"","","","","","","","","","","","Stimulus Presentation","268","2.1.0","235802","65957236b312488ff83e9ad8","Prolific","1","","null","","37","2","","null","356","313","313","43","w","true","3.7499999999999996","","","","","",""
"","","","","","","","","","","","Stimulus Response","269","2.1.0","236460","65957236b312488ff83e9ad8","Prolific","1","","656","","37","2","","w","","","","","","","","1","","","","",""
"","","","","","","","","","","","Feedback","270","2.1.0","236963","65957236b312488ff83e9ad8","Prolific","1","","null","","37","2","","null","","","","","","","","","","","","",""
"","","","","","","","","","","","Confidence Rating","271","2.1.0","237758","65957236b312488ff83e9ad8","Prolific","1","","794","","37","2","<h3>Rate your confidence:</h3>
            <div id=""conf1"" class=""conf"" style=""height:25px; width:154px; margin-top:2px; margin-left:15px;""></div>
            <div id=""conf2"" class=""conf"" style=""height:25px; width:154px; margin-top:2px; margin-left:169px;""></div>
            <div id=""conf3"" class=""conf"" style=""height:25px; width:154px; margin-top:2px; margin-left:323px;""></div>
            <div id=""conf4"" class=""conf"" style=""height:25px; width:154px; margin-top:2px; margin-left:477px;""></div>
          <div id=""conf5"" class=""conf"" style=""height:25px; width:154px; margin-top:2px; margin-left:631px;""></div>","3","","","","","","","","","","","","50",""
"","","","","","","","","","","","Summary Trial","272","2.1.0","237759","65957236b312488ff83e9ad8","Prolific","1","","656","","37","2","","w","356","313","","","","true","3.7499999999999996","1","","Test","43","","3"
"","","","","","","","","","","","html-keyboard-response","274","2.1.0","238772","65957236b312488ff83e9ad8","Prolific","1","","null","","38","2","<p style=""font-size: 70pt;"">+</p>","null","","","","","","","","","","","","",""
"","","","","","","","","","","","Stimulus Presentation","275","2.1.0","239080","65957236b312488ff83e9ad8","Prolific","1","","null","","38","2","","null","313","356","313","43","e","false","3.7499999999999996","","","","","",""
"","","","","","","","","","","","Stimulus Response","276","2.1.0","239825","65957236b312488ff83e9ad8","Prolific","1","","744","","38","2","","e","","","","","","","","1","","","","",""
"","","","","","","","","","","","Feedback","277","2.1.0","240328","65957236b312488ff83e9ad8","Prolific","1","","null","","38","2","","null","","","","","","","","","","","","",""
"","","","","","","","","","","","Confidence Rating","278","2.1.0","241742","65957236b312488ff83e9ad8","Prolific","1","","1414","","38","2","<h3>Rate your confidence:</h3>
            <div id=""conf1"" class=""conf"" style=""height:25px; width:154px; margin-top:2px; margin-left:15px;""></div>
            <div id=""conf2"" class=""conf"" style=""height:25px; width:154px; margin-top:2px; margin-left:169px;""></div>
            <div id=""conf3"" class=""conf"" style=""height:25px; width:154px; margin-top:2px; margin-left:323px;""></div>
            <div id=""conf4"" class=""conf"" style=""height:25px; width:154px; margin-top:2px; margin-left:477px;""></div>
          <div id=""conf5"" class=""conf"" style=""height:25px; width:154px; margin-top:2px; margin-left:631px;""></div>","4","","","","","","","","","","","","50",""
"","","","","","","","","","","","Summary Trial","279","2.1.0","241743","65957236b312488ff83e9ad8","Prolific","1","","744","","38","2","","e","313","356","","","","false","3.7499999999999996","1","","Test","43","","4"
"","","","","","","","","","","","html-keyboard-response","281","2.1.0","242748","65957236b312488ff83e9ad8","Prolific","1","","null","","39","2","<p style=""font-size: 70pt;"">+</p>","null","","","","","","","","","","","","",""
"","","","","","","","","","","","Stimulus Presentation","282","2.1.0","243057","65957236b312488ff83e9ad8","Prolific","1","","null","","39","2","","null","351","313","313","38","w","true","3.6499999999999995","","","","","",""
"","","","","","","","","","","","Stimulus Response","283","2.1.0","244895","65957236b312488ff83e9ad8","Prolific","1","","1837","","39","2","","e","","","","","","","","0","","","","",""
"","","","","","","","","","","","Feedback","284","2.1.0","245397","65957236b312488ff83e9ad8","Prolific","1","","null","","39","2","","null","","","","","","","","","","","","",""
"","","","","","","","","","","","Confidence Rating","285","2.1.0","246689","65957236b312488ff83e9ad8","Prolific","1","","1290","","39","2","<h3>Rate your confidence:</h3>
            <div id=""conf1"" class=""conf"" style=""height:25px; width:154px; margin-top:2px; margin-left:15px;""></div>
            <div id=""conf2"" class=""conf"" style=""height:25px; width:154px; margin-top:2px; margin-left:169px;""></div>
            <div id=""conf3"" class=""conf"" style=""height:25px; width:154px; margin-top:2px; margin-left:323px;""></div>
            <div id=""conf4"" class=""conf"" style=""height:25px; width:154px; margin-top:2px; margin-left:477px;""></div>
          <div id=""conf5"" class=""conf"" style=""height:25px; width:154px; margin-top:2px; margin-left:631px;""></div>","3","","","","","","","","","","","","50",""
"","","","","","","","","","","","Summary Trial","286","2.1.0","246690","65957236b312488ff83e9ad8","Prolific","1","","1837","","39","2","","e","351","313","","","","true","3.6499999999999995","0","","Test","38","","3"
"","","","","","","","","","","","html-keyboard-response","288","2.1.0","247701","65957236b312488ff83e9ad8","Prolific","1","","null","","40","2","<p style=""font-size: 70pt;"">+</p>","null","","","","","","","","","","","","",""
"","","","","","","","","","","","Stimulus Presentation","289","2.1.0","248010","65957236b312488ff83e9ad8","Prolific","1","","null","","40","2","","null","313","356","313","43","e","false","3.7499999999999996","","","","","",""
"","","","","","","","","","","","Stimulus Response","290","2.1.0","248071","65957236b312488ff83e9ad8","Prolific","1","","59","","40","2","","w","","","","","","","","0","","","","",""
"","","","","","","","","","","","Feedback","291","2.1.0","248586","65957236b312488ff83e9ad8","Prolific","1","","null","","40","2","","null","","","","","","","","","","","","",""
"","","","","","","","","","","","Confidence Rating","292","2.1.0","250001","65957236b312488ff83e9ad8","Prolific","1","","1413","","40","2","<h3>Rate your confidence:</h3>
            <div id=""conf1"" class=""conf"" style=""height:25px; width:154px; margin-top:2px; margin-left:15px;""></div>
            <div id=""conf2"" class=""conf"" style=""height:25px; width:154px; margin-top:2px; margin-left:169px;""></div>
            <div id=""conf3"" class=""conf"" style=""height:25px; width:154px; margin-top:2px; margin-left:323px;""></div>
            <div id=""conf4"" class=""conf"" style=""height:25px; width:154px; margin-top:2px; margin-left:477px;""></div>
          <div id=""conf5"" class=""conf"" style=""height:25px; width:154px; margin-top:2px; margin-left:631px;""></div>","2","","","","","","","","","","","","50",""
"","","","","","","","","","","","Summary Trial","293","2.1.0","250002","65957236b312488ff83e9ad8","Prolific","1","","59","","40","2","","w","313","356","","","","false","3.7499999999999996","0","","Test","43","","2"
"","","","","","","","","","","","html-keyboard-response","295","2.1.0","251008","65957236b312488ff83e9ad8","Prolific","1","","null","","41","2","<p style=""font-size: 70pt;"">+</p>","null","","","","","","","","","","","","",""
"","","","","","","","","","","","Stimulus Presentation","296","2.1.0","251320","65957236b312488ff83e9ad8","Prolific","1","","null","","41","2","","null","313","360","313","47","e","false","3.8499999999999996","","","","","",""
"","","","","","","","","","","","Stimulus Response","297","2.1.0","251762","65957236b312488ff83e9ad8","Prolific","1","","440","","41","2","","e","","","","","","","","1","","","","",""
"","","","","","","","","","","","Feedback","298","2.1.0","252272","65957236b312488ff83e9ad8","Prolific","1","","null","","41","2","","null","","","","","","","","","","","","",""
"","","","","","","","","","","","Confidence Rating","299","2.1.0","253283","65957236b312488ff83e9ad8","Prolific","1","","1011","","41","2","<h3>Rate your confidence:</h3>
            <div id=""conf1"" class=""conf"" style=""height:25px; width:154px; margin-top:2px; margin-left:15px;""></div>
            <div id=""conf2"" class=""conf"" style=""height:25px; width:154px; margin-top:2px; margin-left:169px;""></div>
            <div id=""conf3"" class=""conf"" style=""height:25px; width:154px; margin-top:2px; margin-left:323px;""></div>
            <div id=""conf4"" class=""conf"" style=""height:25px; width:154px; margin-top:2px; margin-left:477px;""></div>
          <div id=""conf5"" class=""conf"" style=""height:25px; width:154px; margin-top:2px; margin-left:631px;""></div>","4","","","","","","","","","","","","50",""
"","","","","","","","","","","","Summary Trial","300","2.1.0","253284","65957236b312488ff83e9ad8","Prolific","1","","440","","41","2","","e","313","360","","","","false","3.8499999999999996","1","","Test","47","","4"
"","","","","","","","","","","","html-keyboard-response","302","2.1.0","254299","65957236b312488ff83e9ad8","Prolific","1","","null","","42","2","<p style=""font-size: 70pt;"">+</p>","null","","","","","","","","","","","","",""
"","","","","","","","","","","","Stimulus Presentation","303","2.1.0","254608","65957236b312488ff83e9ad8","Prolific","1","","null","","42","2","","null","360","313","313","47","w","true","3.8499999999999996","","","","","",""
"","","","","","","","","","","","Stimulus Response","304","2.1.0","255177","65957236b312488ff83e9ad8","Prolific","1","","567","","42","2","","w","","","","","","","","1","","","","",""
"","","","","","","","","","","","Feedback","305","2.1.0","255678","65957236b312488ff83e9ad8","Prolific","1","","null","","42","2","","null","","","","","","","","","","","","",""
"","","","","","","","","","","","Confidence Rating","306","2.1.0","257257","65957236b312488ff83e9ad8","Prolific","1","","1577","","42","2","<h3>Rate your confidence:</h3>
            <div id=""conf1"" class=""conf"" style=""height:25px; width:154px; margin-top:2px; margin-left:15px;""></div>
            <div id=""conf2"" class=""conf"" style=""height:25px; width:154px; margin-top:2px; margin-left:169px;""></div>
            <div id=""conf3"" class=""conf"" style=""height:25px; width:154px; margin-top:2px; margin-left:323px;""></div>
            <div id=""conf4"" class=""conf"" style=""height:25px; width:154px; margin-top:2px; margin-left:477px;""></div>
          <div id=""conf5"" class=""conf"" style=""height:25px; width:154px; margin-top:2px; margin-left:631px;""></div>","4","","","","","","","","","","","","50",""
"","","","","","","","","","","","Summary Trial","307","2.1.0","257258","65957236b312488ff83e9ad8","Prolific","1","","567","","42","2","","w","360","313","","","","true","3.8499999999999996","1","","Test","47","","4"
"","","","","","","","","","","","html-keyboard-response","309","2.1.0","258272","65957236b312488ff83e9ad8","Prolific","1","","null","","43","2","<p style=""font-size: 70pt;"">+</p>","null","","","","","","","","","","","","",""
"","","","","","","","","","","","Stimulus Presentation","310","2.1.0","258586","65957236b312488ff83e9ad8","Prolific","1","","null","","43","2","","null","313","356","313","43","e","false","3.7499999999999996","","","","","",""
"","","","","","","","","","","","Stimulus Response","311","2.1.0","259342","65957236b312488ff83e9ad8","Prolific","1","","754","","43","2","","w","","","","","","","","0","","","","",""
"","","","","","","","","","","","Feedback","312","2.1.0","259846","65957236b312488ff83e9ad8","Prolific","1","","null","","43","2","","null","","","","","","","","","","","","",""
"","","","","","","","","","","","Confidence Rating","313","2.1.0","261001","65957236b312488ff83e9ad8","Prolific","1","","1154","","43","2","<h3>Rate your confidence:</h3>
            <div id=""conf1"" class=""conf"" style=""height:25px; width:154px; margin-top:2px; margin-left:15px;""></div>
            <div id=""conf2"" class=""conf"" style=""height:25px; width:154px; margin-top:2px; margin-left:169px;""></div>
            <div id=""conf3"" class=""conf"" style=""height:25px; width:154px; margin-top:2px; margin-left:323px;""></div>
            <div id=""conf4"" class=""conf"" style=""height:25px; width:154px; margin-top:2px; margin-left:477px;""></div>
          <div id=""conf5"" class=""conf"" style=""height:25px; width:154px; margin-top:2px; margin-left:631px;""></div>","2","","","","","","","","","","","","50",""
"","","","","","","","","","","","Summary Trial","314","2.1.0","261002","65957236b312488ff83e9ad8","Prolific","1","","754","","43","2","","w","313","356","","","","false","3.7499999999999996","0","","Test","43","","2"
"","","","","","","","","","","","html-keyboard-response","316","2.1.0","262004","65957236b312488ff83e9ad8","Prolific","1","","null","","44","2","<p style=""font-size: 70pt;"">+</p>","null","","","","","","","","","","","","",""
"","","","","","","","","","","","Stimulus Presentation","317","2.1.0","262308","65957236b312488ff83e9ad8","Prolific","1","","null","","44","2","","null","360","313","313","47","w","true","3.8499999999999996","","","","","",""
"","","","","","","","","","","","Stimulus Response","318","2.1.0","262798","65957236b312488ff83e9ad8","Prolific","1","","487","","44","2","","w","","","","","","","","1","","","","",""
"","","","","","","","","","","","Feedback","319","2.1.0","263299","65957236b312488ff83e9ad8","Prolific","1","","null","","44","2","","null","","","","","","","","","","","","",""
"","","","","","","","","","","","Confidence Rating","320","2.1.0","264905","65957236b312488ff83e9ad8","Prolific","1","","1605","","44","2","<h3>Rate your confidence:</h3>
            <div id=""conf1"" class=""conf"" style=""height:25px; width:154px; margin-top:2px; margin-left:15px;""></div>
            <div id=""conf2"" class=""conf"" style=""height:25px; width:154px; margin-top:2px; margin-left:169px;""></div>
            <div id=""conf3"" class=""conf"" style=""height:25px; width:154px; margin-top:2px; margin-left:323px;""></div>
            <div id=""conf4"" class=""conf"" style=""height:25px; width:154px; margin-top:2px; margin-left:477px;""></div>
          <div id=""conf5"" class=""conf"" style=""height:25px; width:154px; margin-top:2px; margin-left:631px;""></div>","2","","","","","","","","","","","","50",""
"","","","","","","","","","","","Summary Trial","321","2.1.0","264906","65957236b312488ff83e9ad8","Prolific","1","","487","","44","2","","w","360","313","","","","true","3.8499999999999996","1","","Test","47","","2"
"","","","","","","","","","","","html-keyboard-response","323","2.1.0","265914","65957236b312488ff83e9ad8","Prolific","1","","null","","45","2","<p style=""font-size: 70pt;"">+</p>","null","","","","","","","","","","","","",""
"","","","","","","","","","","","Stimulus Presentation","324","2.1.0","266224","65957236b312488ff83e9ad8","Prolific","1","","null","","45","2","","null","360","313","313","47","w","true","3.8499999999999996","","","","","",""
"","","","","","","","","","","","Stimulus Response","325","2.1.0","266935","65957236b312488ff83e9ad8","Prolific","1","","710","","45","2","","w","","","","","","","","1","","","","",""
"","","","","","","","","","","","Feedback","326","2.1.0","267438","65957236b312488ff83e9ad8","Prolific","1","","null","","45","2","","null","","","","","","","","","","","","",""
"","","","","","","","","","","","Confidence Rating","327","2.1.0","268288","65957236b312488ff83e9ad8","Prolific","1","","849","","45","2","<h3>Rate your confidence:</h3>
            <div id=""conf1"" class=""conf"" style=""height:25px; width:154px; margin-top:2px; margin-left:15px;""></div>
            <div id=""conf2"" class=""conf"" style=""height:25px; width:154px; margin-top:2px; margin-left:169px;""></div>
            <div id=""conf3"" class=""conf"" style=""height:25px; width:154px; margin-top:2px; margin-left:323px;""></div>
            <div id=""conf4"" class=""conf"" style=""height:25px; width:154px; margin-top:2px; margin-left:477px;""></div>
          <div id=""conf5"" class=""conf"" style=""height:25px; width:154px; margin-top:2px; margin-left:631px;""></div>","2","","","","","","","","","","","","50",""
"","","","","","","","","","","","Summary Trial","328","2.1.0","268289","65957236b312488ff83e9ad8","Prolific","1","","710","","45","2","","w","360","313","","","","true","3.8499999999999996","1","","Test","47","","2"
"","","","","","","","","","","","html-keyboard-response","330","2.1.0","269297","65957236b312488ff83e9ad8","Prolific","1","","null","","46","2","<p style=""font-size: 70pt;"">+</p>","null","","","","","","","","","","","","",""
"","","","","","","","","","","","Stimulus Presentation","331","2.1.0","269605","65957236b312488ff83e9ad8","Prolific","1","","null","","46","2","","null","313","356","313","43","e","false","3.7499999999999996","","","","","",""
"","","","","","","","","","","","Stimulus Response","332","2.1.0","270149","65957236b312488ff83e9ad8","Prolific","1","","543","","46","2","","e","","","","","","","","1","","","","",""
"","","","","","","","","","","","Feedback","333","2.1.0","270667","65957236b312488ff83e9ad8","Prolific","1","","null","","46","2","","null","","","","","","","","","","","","",""
"","","","","","","","","","","","Confidence Rating","334","2.1.0","271791","65957236b312488ff83e9ad8","Prolific","1","","1123","","46","2","<h3>Rate your confidence:</h3>
            <div id=""conf1"" class=""conf"" style=""height:25px; width:154px; margin-top:2px; margin-left:15px;""></div>
            <div id=""conf2"" class=""conf"" style=""height:25px; width:154px; margin-top:2px; margin-left:169px;""></div>
            <div id=""conf3"" class=""conf"" style=""height:25px; width:154px; margin-top:2px; margin-left:323px;""></div>
            <div id=""conf4"" class=""conf"" style=""height:25px; width:154px; margin-top:2px; margin-left:477px;""></div>
          <div id=""conf5"" class=""conf"" style=""height:25px; width:154px; margin-top:2px; margin-left:631px;""></div>","3","","","","","","","","","","","","50",""
"","","","","","","","","","","","Summary Trial","335","2.1.0","271791","65957236b312488ff83e9ad8","Prolific","1","","543","","46","2","","e","313","356","","","","false","3.7499999999999996","1","","Test","43","","3"
"","","","","","","","","","","","html-keyboard-response","337","2.1.0","272805","65957236b312488ff83e9ad8","Prolific","1","","null","","47","2","<p style=""font-size: 70pt;"">+</p>","null","","","","","","","","","","","","",""
"","","","","","","","","","","","Stimulus Presentation","338","2.1.0","273115","65957236b312488ff83e9ad8","Prolific","1","","null","","47","2","","null","356","313","313","43","w","true","3.7499999999999996","","","","","",""
"","","","","","","","","","","","Stimulus Response","339","2.1.0","273571","65957236b312488ff83e9ad8","Prolific","1","","455","","47","2","","w","","","","","","","","1","","","","",""
"","","","","","","","","","","","Feedback","340","2.1.0","274082","65957236b312488ff83e9ad8","Prolific","1","","null","","47","2","","null","","","","","","","","","","","","",""
"","","","","","","","","","","","Confidence Rating","341","2.1.0","274713","65957236b312488ff83e9ad8","Prolific","1","","631","","47","2","<h3>Rate your confidence:</h3>
            <div id=""conf1"" class=""conf"" style=""height:25px; width:154px; margin-top:2px; margin-left:15px;""></div>
            <div id=""conf2"" class=""conf"" style=""height:25px; width:154px; margin-top:2px; margin-left:169px;""></div>
            <div id=""conf3"" class=""conf"" style=""height:25px; width:154px; margin-top:2px; margin-left:323px;""></div>
            <div id=""conf4"" class=""conf"" style=""height:25px; width:154px; margin-top:2px; margin-left:477px;""></div>
          <div id=""conf5"" class=""conf"" style=""height:25px; width:154px; margin-top:2px; margin-left:631px;""></div>","2","","","","","","","","","","","","50",""
"","","","","","","","","","","","Summary Trial","342","2.1.0","274714","65957236b312488ff83e9ad8","Prolific","1","","455","","47","2","","w","356","313","","","","true","3.7499999999999996","1","","Test","43","","2"
"","","","","","","","","","","","html-keyboard-response","344","2.1.0","275715","65957236b312488ff83e9ad8","Prolific","1","","null","","48","2","<p style=""font-size: 70pt;"">+</p>","null","","","","","","","","","","","","",""
"","","","","","","","","","","","Stimulus Presentation","345","2.1.0","276028","65957236b312488ff83e9ad8","Prolific","1","","null","","48","2","","null","313","351","313","38","e","false","3.6499999999999995","","","","","",""
"","","","","","","","","","","","Stimulus Response","346","2.1.0","277097","65957236b312488ff83e9ad8","Prolific","1","","1068","","48","2","","w","","","","","","","","0","","","","",""
"","","","","","","","","","","","Feedback","347","2.1.0","277600","65957236b312488ff83e9ad8","Prolific","1","","null","","48","2","","null","","","","","","","","","","","","",""
"","","","","","","","","","","","Confidence Rating","348","2.1.0","279021","65957236b312488ff83e9ad8","Prolific","1","","1419","","48","2","<h3>Rate your confidence:</h3>
            <div id=""conf1"" class=""conf"" style=""height:25px; width:154px; margin-top:2px; margin-left:15px;""></div>
            <div id=""conf2"" class=""conf"" style=""height:25px; width:154px; margin-top:2px; margin-left:169px;""></div>
            <div id=""conf3"" class=""conf"" style=""height:25px; width:154px; margin-top:2px; margin-left:323px;""></div>
            <div id=""conf4"" class=""conf"" style=""height:25px; width:154px; margin-top:2px; margin-left:477px;""></div>
          <div id=""conf5"" class=""conf"" style=""height:25px; width:154px; margin-top:2px; margin-left:631px;""></div>","2","","","","","","","","","","","","50",""
"","","","","","","","","","","","Summary Trial","349","2.1.0","279022","65957236b312488ff83e9ad8","Prolific","1","","1068","","48","2","","w","313","351","","","","false","3.6499999999999995","0","","Test","38","","2"
"","","","","","","","","","","","html-keyboard-response","351","2.1.0","280024","65957236b312488ff83e9ad8","Prolific","1","","null","","49","2","<p style=""font-size: 70pt;"">+</p>","null","","","","","","","","","","","","",""
"","","","","","","","","","","","Stimulus Presentation","352","2.1.0","280329","65957236b312488ff83e9ad8","Prolific","1","","null","","49","2","","null","356","313","313","43","w","true","3.7499999999999996","","","","","",""
"","","","","","","","","","","","Stimulus Response","353","2.1.0","280825","65957236b312488ff83e9ad8","Prolific","1","","495","","49","2","","w","","","","","","","","1","","","","",""
"","","","","","","","","","","","Feedback","354","2.1.0","281328","65957236b312488ff83e9ad8","Prolific","1","","null","","49","2","","null","","","","","","","","","","","","",""
"","","","","","","","","","","","Confidence Rating","355","2.1.0","282582","65957236b312488ff83e9ad8","Prolific","1","","1252","","49","2","<h3>Rate your confidence:</h3>
            <div id=""conf1"" class=""conf"" style=""height:25px; width:154px; margin-top:2px; margin-left:15px;""></div>
            <div id=""conf2"" class=""conf"" style=""height:25px; width:154px; margin-top:2px; margin-left:169px;""></div>
            <div id=""conf3"" class=""conf"" style=""height:25px; width:154px; margin-top:2px; margin-left:323px;""></div>
            <div id=""conf4"" class=""conf"" style=""height:25px; width:154px; margin-top:2px; margin-left:477px;""></div>
          <div id=""conf5"" class=""conf"" style=""height:25px; width:154px; margin-top:2px; margin-left:631px;""></div>","2","","","","","","","","","","","","50",""
"","","","","","","","","","","","Summary Trial","356","2.1.0","282583","65957236b312488ff83e9ad8","Prolific","1","","495","","49","2","","w","356","313","","","","true","3.7499999999999996","1","","Test","43","","2"
"","","","","","","","","","","","html-keyboard-response","358","2.1.0","283591","65957236b312488ff83e9ad8","Prolific","1","","null","","50","2","<p style=""font-size: 70pt;"">+</p>","null","","","","","","","","","","","","",""
"","","","","","","","","","","","Stimulus Presentation","359","2.1.0","283905","65957236b312488ff83e9ad8","Prolific","1","","null","","50","2","","null","313","356","313","43","e","false","3.7499999999999996","","","","","",""
"","","","","","","","","","","","Stimulus Response","360","2.1.0","284457","65957236b312488ff83e9ad8","Prolific","1","","551","","50","2","","e","","","","","","","","1","","","","",""
"","","","","","","","","","","","Feedback","361","2.1.0","284960","65957236b312488ff83e9ad8","Prolific","1","","null","","50","2","","null","","","","","","","","","","","","",""
"","","","","","","","","","","","Confidence Rating","362","2.1.0","286485","65957236b312488ff83e9ad8","Prolific","1","","1523","","50","2","<h3>Rate your confidence:</h3>
            <div id=""conf1"" class=""conf"" style=""height:25px; width:154px; margin-top:2px; margin-left:15px;""></div>
            <div id=""conf2"" class=""conf"" style=""height:25px; width:154px; margin-top:2px; margin-left:169px;""></div>
            <div id=""conf3"" class=""conf"" style=""height:25px; width:154px; margin-top:2px; margin-left:323px;""></div>
            <div id=""conf4"" class=""conf"" style=""height:25px; width:154px; margin-top:2px; margin-left:477px;""></div>
          <div id=""conf5"" class=""conf"" style=""height:25px; width:154px; margin-top:2px; margin-left:631px;""></div>","2","","","","","","","","","","","","50",""
"","","","","","","","","","","","Summary Trial","363","2.1.0","286486","65957236b312488ff83e9ad8","Prolific","1","","551","","50","2","","e","313","356","","","","false","3.7499999999999996","1","","Test","43","","2"
"","","","","","","","","","","","html-keyboard-response","365","2.1.0","287499","65957236b312488ff83e9ad8","Prolific","1","","null","","51","2","<p style=""font-size: 70pt;"">+</p>","null","","","","","","","","","","","","",""
"","","","","","","","","","","","Stimulus Presentation","366","2.1.0","287802","65957236b312488ff83e9ad8","Prolific","1","","null","","51","2","","null","351","313","313","38","w","true","3.6499999999999995","","","","","",""
"","","","","","","","","","","","Stimulus Response","367","2.1.0","288107","65957236b312488ff83e9ad8","Prolific","1","","304","","51","2","","w","","","","","","","","1","","","","",""
"","","","","","","","","","","","Feedback","368","2.1.0","288617","65957236b312488ff83e9ad8","Prolific","1","","null","","51","2","","null","","","","","","","","","","","","",""
"","","","","","","","","","","","Confidence Rating","369","2.1.0","289975","65957236b312488ff83e9ad8","Prolific","1","","1357","","51","2","<h3>Rate your confidence:</h3>
            <div id=""conf1"" class=""conf"" style=""height:25px; width:154px; margin-top:2px; margin-left:15px;""></div>
            <div id=""conf2"" class=""conf"" style=""height:25px; width:154px; margin-top:2px; margin-left:169px;""></div>
            <div id=""conf3"" class=""conf"" style=""height:25px; width:154px; margin-top:2px; margin-left:323px;""></div>
            <div id=""conf4"" class=""conf"" style=""height:25px; width:154px; margin-top:2px; margin-left:477px;""></div>
          <div id=""conf5"" class=""conf"" style=""height:25px; width:154px; margin-top:2px; margin-left:631px;""></div>","2","","","","","","","","","","","","50",""
"","","","","","","","","","","","Summary Trial","370","2.1.0","289976","65957236b312488ff83e9ad8","Prolific","1","","304","","51","2","","w","351","313","","","","true","3.6499999999999995","1","","Test","38","","2"
"","","","","","","","","","","","html-keyboard-response","372","2.1.0","290978","65957236b312488ff83e9ad8","Prolific","1","","null","","52","2","<p style=""font-size: 70pt;"">+</p>","null","","","","","","","","","","","","",""
"","","","","","","","","","","","Stimulus Presentation","373","2.1.0","291285","65957236b312488ff83e9ad8","Prolific","1","","null","","52","2","","null","313","351","313","38","e","false","3.6499999999999995","","","","","",""
"","","","","","","","","","","","Stimulus Response","374","2.1.0","291845","65957236b312488ff83e9ad8","Prolific","1","","559","","52","2","","e","","","","","","","","1","","","","",""
"","","","","","","","","","","","Feedback","375","2.1.0","292346","65957236b312488ff83e9ad8","Prolific","1","","null","","52","2","","null","","","","","","","","","","","","",""
"","","","","","","","","","","","Confidence Rating","376","2.1.0","293618","65957236b312488ff83e9ad8","Prolific","1","","1270","","52","2","<h3>Rate your confidence:</h3>
            <div id=""conf1"" class=""conf"" style=""height:25px; width:154px; margin-top:2px; margin-left:15px;""></div>
            <div id=""conf2"" class=""conf"" style=""height:25px; width:154px; margin-top:2px; margin-left:169px;""></div>
            <div id=""conf3"" class=""conf"" style=""height:25px; width:154px; margin-top:2px; margin-left:323px;""></div>
            <div id=""conf4"" class=""conf"" style=""height:25px; width:154px; margin-top:2px; margin-left:477px;""></div>
          <div id=""conf5"" class=""conf"" style=""height:25px; width:154px; margin-top:2px; margin-left:631px;""></div>","2","","","","","","","","","","","","50",""
"","","","","","","","","","","","Summary Trial","377","2.1.0","293619","65957236b312488ff83e9ad8","Prolific","1","","559","","52","2","","e","313","351","","","","false","3.6499999999999995","1","","Test","38","","2"
"","","","","","","","","","","","html-keyboard-response","379","2.1.0","294621","65957236b312488ff83e9ad8","Prolific","1","","null","","53","2","<p style=""font-size: 70pt;"">+</p>","null","","","","","","","","","","","","",""
"","","","","","","","","","","","Stimulus Presentation","380","2.1.0","294932","65957236b312488ff83e9ad8","Prolific","1","","null","","53","2","","null","313","348","313","35","e","false","3.5499999999999994","","","","","",""
"","","","","","","","","","","","Stimulus Response","381","2.1.0","295215","65957236b312488ff83e9ad8","Prolific","1","","281","","53","2","","w","","","","","","","","0","","","","",""
"","","","","","","","","","","","Feedback","382","2.1.0","295719","65957236b312488ff83e9ad8","Prolific","1","","null","","53","2","","null","","","","","","","","","","","","",""
"","","","","","","","","","","","Confidence Rating","383","2.1.0","296859","65957236b312488ff83e9ad8","Prolific","1","","1138","","53","2","<h3>Rate your confidence:</h3>
            <div id=""conf1"" class=""conf"" style=""height:25px; width:154px; margin-top:2px; margin-left:15px;""></div>
            <div id=""conf2"" class=""conf"" style=""height:25px; width:154px; margin-top:2px; margin-left:169px;""></div>
            <div id=""conf3"" class=""conf"" style=""height:25px; width:154px; margin-top:2px; margin-left:323px;""></div>
            <div id=""conf4"" class=""conf"" style=""height:25px; width:154px; margin-top:2px; margin-left:477px;""></div>
          <div id=""conf5"" class=""conf"" style=""height:25px; width:154px; margin-top:2px; margin-left:631px;""></div>","2","","","","","","","","","","","","50",""
"","","","","","","","","","","","Summary Trial","384","2.1.0","296860","65957236b312488ff83e9ad8","Prolific","1","","281","","53","2","","w","313","348","","","","false","3.5499999999999994","0","","Test","35","","2"
"","","","","","","","","","","","html-keyboard-response","386","2.1.0","297874","65957236b312488ff83e9ad8","Prolific","1","","null","","54","2","<p style=""font-size: 70pt;"">+</p>","null","","","","","","","","","","","","",""
"","","","","","","","","","","","Stimulus Presentation","387","2.1.0","298177","65957236b312488ff83e9ad8","Prolific","1","","null","","54","2","","null","351","313","313","38","w","true","3.6499999999999995","","","","","",""
"","","","","","","","","","","","Stimulus Response","388","2.1.0","298584","65957236b312488ff83e9ad8","Prolific","1","","406","","54","2","","w","","","","","","","","1","","","","",""
"","","","","","","","","","","","Feedback","389","2.1.0","299087","65957236b312488ff83e9ad8","Prolific","1","","null","","54","2","","null","","","","","","","","","","","","",""
"","","","","","","","","","","","Confidence Rating","390","2.1.0","300013","65957236b312488ff83e9ad8","Prolific","1","","925","","54","2","<h3>Rate your confidence:</h3>
            <div id=""conf1"" class=""conf"" style=""height:25px; width:154px; margin-top:2px; margin-left:15px;""></div>
            <div id=""conf2"" class=""conf"" style=""height:25px; width:154px; margin-top:2px; margin-left:169px;""></div>
            <div id=""conf3"" class=""conf"" style=""height:25px; width:154px; margin-top:2px; margin-left:323px;""></div>
            <div id=""conf4"" class=""conf"" style=""height:25px; width:154px; margin-top:2px; margin-left:477px;""></div>
          <div id=""conf5"" class=""conf"" style=""height:25px; width:154px; margin-top:2px; margin-left:631px;""></div>","2","","","","","","","","","","","","50",""
"","","","","","","","","","","","Summary Trial","391","2.1.0","300014","65957236b312488ff83e9ad8","Prolific","1","","406","","54","2","","w","351","313","","","","true","3.6499999999999995","1","","Test","38","","2"
"","","","","","","","","","","","html-keyboard-response","393","2.1.0","301019","65957236b312488ff83e9ad8","Prolific","1","","null","","55","2","<p style=""font-size: 70pt;"">+</p>","null","","","","","","","","","","","","",""
"","","","","","","","","","","","Stimulus Presentation","394","2.1.0","301332","65957236b312488ff83e9ad8","Prolific","1","","null","","55","2","","null","313","351","313","38","e","false","3.6499999999999995","","","","","",""
"","","","","","","","","","","","Stimulus Response","395","2.1.0","301770","65957236b312488ff83e9ad8","Prolific","1","","437","","55","2","","e","","","","","","","","1","","","","",""
"","","","","","","","","","","","Feedback","396","2.1.0","302273","65957236b312488ff83e9ad8","Prolific","1","","null","","55","2","","null","","","","","","","","","","","","",""
"","","","","","","","","","","","Confidence Rating","397","2.1.0","303112","65957236b312488ff83e9ad8","Prolific","1","","838","","55","2","<h3>Rate your confidence:</h3>
            <div id=""conf1"" class=""conf"" style=""height:25px; width:154px; margin-top:2px; margin-left:15px;""></div>
            <div id=""conf2"" class=""conf"" style=""height:25px; width:154px; margin-top:2px; margin-left:169px;""></div>
            <div id=""conf3"" class=""conf"" style=""height:25px; width:154px; margin-top:2px; margin-left:323px;""></div>
            <div id=""conf4"" class=""conf"" style=""height:25px; width:154px; margin-top:2px; margin-left:477px;""></div>
          <div id=""conf5"" class=""conf"" style=""height:25px; width:154px; margin-top:2px; margin-left:631px;""></div>","2","","","","","","","","","","","","50",""
"","","","","","","","","","","","Summary Trial","398","2.1.0","303113","65957236b312488ff83e9ad8","Prolific","1","","437","","55","2","","e","313","351","","","","false","3.6499999999999995","1","","Test","38","","2"
"","","","","","","","","","","","html-keyboard-response","400","2.1.0","304121","65957236b312488ff83e9ad8","Prolific","1","","null","","56","2","<p style=""font-size: 70pt;"">+</p>","null","","","","","","","","","","","","",""
"","","","","","","","","","","","Stimulus Presentation","401","2.1.0","304432","65957236b312488ff83e9ad8","Prolific","1","","null","","56","2","","null","348","313","313","35","w","true","3.5499999999999994","","","","","",""
"","","","","","","","","","","","Stimulus Response","402","2.1.0","304845","65957236b312488ff83e9ad8","Prolific","1","","412","","56","2","","w","","","","","","","","1","","","","",""
"","","","","","","","","","","","Feedback","403","2.1.0","305354","65957236b312488ff83e9ad8","Prolific","1","","null","","56","2","","null","","","","","","","","","","","","",""
"","","","","","","","","","","","Confidence Rating","404","2.1.0","305957","65957236b312488ff83e9ad8","Prolific","1","","602","","56","2","<h3>Rate your confidence:</h3>
            <div id=""conf1"" class=""conf"" style=""height:25px; width:154px; margin-top:2px; margin-left:15px;""></div>
            <div id=""conf2"" class=""conf"" style=""height:25px; width:154px; margin-top:2px; margin-left:169px;""></div>
            <div id=""conf3"" class=""conf"" style=""height:25px; width:154px; margin-top:2px; margin-left:323px;""></div>
            <div id=""conf4"" class=""conf"" style=""height:25px; width:154px; margin-top:2px; margin-left:477px;""></div>
          <div id=""conf5"" class=""conf"" style=""height:25px; width:154px; margin-top:2px; margin-left:631px;""></div>","2","","","","","","","","","","","","50",""
"","","","","","","","","","","","Summary Trial","405","2.1.0","305958","65957236b312488ff83e9ad8","Prolific","1","","412","","56","2","","w","348","313","","","","true","3.5499999999999994","1","","Test","35","","2"
"","","","","","","","","","","","html-keyboard-response","407","2.1.0","306959","65957236b312488ff83e9ad8","Prolific","1","","null","","57","2","<p style=""font-size: 70pt;"">+</p>","null","","","","","","","","","","","","",""
"","","","","","","","","","","","Stimulus Presentation","408","2.1.0","307260","65957236b312488ff83e9ad8","Prolific","1","","null","","57","2","","null","313","348","313","35","e","false","3.5499999999999994","","","","","",""
"","","","","","","","","","","","Stimulus Response","409","2.1.0","307883","65957236b312488ff83e9ad8","Prolific","1","","621","","57","2","","e","","","","","","","","1","","","","",""
"","","","","","","","","","","","Feedback","410","2.1.0","308394","65957236b312488ff83e9ad8","Prolific","1","","null","","57","2","","null","","","","","","","","","","","","",""
"","","","","","","","","","","","Confidence Rating","411","2.1.0","309552","65957236b312488ff83e9ad8","Prolific","1","","1156","","57","2","<h3>Rate your confidence:</h3>
            <div id=""conf1"" class=""conf"" style=""height:25px; width:154px; margin-top:2px; margin-left:15px;""></div>
            <div id=""conf2"" class=""conf"" style=""height:25px; width:154px; margin-top:2px; margin-left:169px;""></div>
            <div id=""conf3"" class=""conf"" style=""height:25px; width:154px; margin-top:2px; margin-left:323px;""></div>
            <div id=""conf4"" class=""conf"" style=""height:25px; width:154px; margin-top:2px; margin-left:477px;""></div>
          <div id=""conf5"" class=""conf"" style=""height:25px; width:154px; margin-top:2px; margin-left:631px;""></div>","4","","","","","","","","","","","","50",""
"","","","","","","","","","","","Summary Trial","412","2.1.0","309552","65957236b312488ff83e9ad8","Prolific","1","","621","","57","2","","e","313","348","","","","false","3.5499999999999994","1","","Test","35","","4"
"","","","","","","","","","","","html-keyboard-response","414","2.1.0","310553","65957236b312488ff83e9ad8","Prolific","1","","null","","58","2","<p style=""font-size: 70pt;"">+</p>","null","","","","","","","","","","","","",""
"","","","","","","","","","","","Stimulus Presentation","415","2.1.0","310863","65957236b312488ff83e9ad8","Prolific","1","","null","","58","2","","null","345","313","313","32","w","true","3.4499999999999993","","","","","",""
"","","","","","","","","","","","Stimulus Response","416","2.1.0","311316","65957236b312488ff83e9ad8","Prolific","1","","451","","58","2","","w","","","","","","","","1","","","","",""
"","","","","","","","","","","","Feedback","417","2.1.0","311817","65957236b312488ff83e9ad8","Prolific","1","","null","","58","2","","null","","","","","","","","","","","","",""
"","","","","","","","","","","","Confidence Rating","418","2.1.0","312803","65957236b312488ff83e9ad8","Prolific","1","","985","","58","2","<h3>Rate your confidence:</h3>
            <div id=""conf1"" class=""conf"" style=""height:25px; width:154px; margin-top:2px; margin-left:15px;""></div>
            <div id=""conf2"" class=""conf"" style=""height:25px; width:154px; margin-top:2px; margin-left:169px;""></div>
            <div id=""conf3"" class=""conf"" style=""height:25px; width:154px; margin-top:2px; margin-left:323px;""></div>
            <div id=""conf4"" class=""conf"" style=""height:25px; width:154px; margin-top:2px; margin-left:477px;""></div>
          <div id=""conf5"" class=""conf"" style=""height:25px; width:154px; margin-top:2px; margin-left:631px;""></div>","3","","","","","","","","","","","","50",""
"","","","","","","","","","","","Summary Trial","419","2.1.0","312804","65957236b312488ff83e9ad8","Prolific","1","","451","","58","2","","w","345","313","","","","true","3.4499999999999993","1","","Test","32","","3"
"","","","","","","","","","","","html-keyboard-response","421","2.1.0","313805","65957236b312488ff83e9ad8","Prolific","1","","null","","59","2","<p style=""font-size: 70pt;"">+</p>","null","","","","","","","","","","","","",""
"","","","","","","","","","","","Stimulus Presentation","422","2.1.0","314114","65957236b312488ff83e9ad8","Prolific","1","","null","","59","2","","null","345","313","313","32","w","true","3.4499999999999993","","","","","",""
"","","","","","","","","","","","Stimulus Response","423","2.1.0","314224","65957236b312488ff83e9ad8","Prolific","1","","110","","59","2","","e","","","","","","","","0","","","","",""
"","","","","","","","","","","","Feedback","424","2.1.0","314734","65957236b312488ff83e9ad8","Prolific","1","","null","","59","2","","null","","","","","","","","","","","","",""
"","","","","","","","","","","","Confidence Rating","425","2.1.0","316693","65957236b312488ff83e9ad8","Prolific","1","","1958","","59","2","<h3>Rate your confidence:</h3>
            <div id=""conf1"" class=""conf"" style=""height:25px; width:154px; margin-top:2px; margin-left:15px;""></div>
            <div id=""conf2"" class=""conf"" style=""height:25px; width:154px; margin-top:2px; margin-left:169px;""></div>
            <div id=""conf3"" class=""conf"" style=""height:25px; width:154px; margin-top:2px; margin-left:323px;""></div>
            <div id=""conf4"" class=""conf"" style=""height:25px; width:154px; margin-top:2px; margin-left:477px;""></div>
          <div id=""conf5"" class=""conf"" style=""height:25px; width:154px; margin-top:2px; margin-left:631px;""></div>","2","","","","","","","","","","","","50",""
"","","","","","","","","","","","Summary Trial","426","2.1.0","316694","65957236b312488ff83e9ad8","Prolific","1","","110","","59","2","","e","345","313","","","","true","3.4499999999999993","0","","Test","32","","2"
"","","","","","","","","","","","html-keyboard-response","428","2.1.0","317697","65957236b312488ff83e9ad8","Prolific","1","","null","","60","2","<p style=""font-size: 70pt;"">+</p>","null","","","","","","","","","","","","",""
"","","","","","","","","","","","Stimulus Presentation","429","2.1.0","318022","65957236b312488ff83e9ad8","Prolific","1","","null","","60","2","","null","313","348","313","35","e","false","3.5499999999999994","","","","","",""
"","","","","","","","","","","","Stimulus Response","430","2.1.0","319358","65957236b312488ff83e9ad8","Prolific","1","","1334","","60","2","","e","","","","","","","","1","","","","",""
"","","","","","","","","","","","Feedback","431","2.1.0","319861","65957236b312488ff83e9ad8","Prolific","1","","null","","60","2","","null","","","","","","","","","","","","",""
"","","","","","","","","","","","Confidence Rating","432","2.1.0","321106","65957236b312488ff83e9ad8","Prolific","1","","1244","","60","2","<h3>Rate your confidence:</h3>
            <div id=""conf1"" class=""conf"" style=""height:25px; width:154px; margin-top:2px; margin-left:15px;""></div>
            <div id=""conf2"" class=""conf"" style=""height:25px; width:154px; margin-top:2px; margin-left:169px;""></div>
            <div id=""conf3"" class=""conf"" style=""height:25px; width:154px; margin-top:2px; margin-left:323px;""></div>
            <div id=""conf4"" class=""conf"" style=""height:25px; width:154px; margin-top:2px; margin-left:477px;""></div>
          <div id=""conf5"" class=""conf"" style=""height:25px; width:154px; margin-top:2px; margin-left:631px;""></div>","4","","","","","","","","","","","","50",""
"","","","","","","","","","","","Summary Trial","433","2.1.0","321106","65957236b312488ff83e9ad8","Prolific","1","","1334","","60","2","","e","313","348","","","","false","3.5499999999999994","1","","Test","35","","4"
"","","","","","","","","","","","html-keyboard-response","435","2.1.0","322112","65957236b312488ff83e9ad8","Prolific","1","","null","","61","2","<p style=""font-size: 70pt;"">+</p>","null","","","","","","","","","","","","",""
"","","","","","","","","","","","Stimulus Presentation","436","2.1.0","322422","65957236b312488ff83e9ad8","Prolific","1","","null","","61","2","","null","348","313","313","35","w","true","3.5499999999999994","","","","","",""
"","","","","","","","","","","","Stimulus Response","437","2.1.0","322922","65957236b312488ff83e9ad8","Prolific","1","","499","","61","2","","e","","","","","","","","0","","","","",""
"","","","","","","","","","","","Feedback","438","2.1.0","323429","65957236b312488ff83e9ad8","Prolific","1","","null","","61","2","","null","","","","","","","","","","","","",""
"","","","","","","","","","","","Confidence Rating","439","2.1.0","324284","65957236b312488ff83e9ad8","Prolific","1","","854","","61","2","<h3>Rate your confidence:</h3>
            <div id=""conf1"" class=""conf"" style=""height:25px; width:154px; margin-top:2px; margin-left:15px;""></div>
            <div id=""conf2"" class=""conf"" style=""height:25px; width:154px; margin-top:2px; margin-left:169px;""></div>
            <div id=""conf3"" class=""conf"" style=""height:25px; width:154px; margin-top:2px; margin-left:323px;""></div>
            <div id=""conf4"" class=""conf"" style=""height:25px; width:154px; margin-top:2px; margin-left:477px;""></div>
          <div id=""conf5"" class=""conf"" style=""height:25px; width:154px; margin-top:2px; margin-left:631px;""></div>","4","","","","","","","","","","","","50",""
"","","","","","","","","","","","Summary Trial","440","2.1.0","324285","65957236b312488ff83e9ad8","Prolific","1","","499","","61","2","","e","348","313","","","","true","3.5499999999999994","0","","Test","35","","4"
"","","","","","","","","","","","html-keyboard-response","442","2.1.0","325287","65957236b312488ff83e9ad8","Prolific","1","","null","","62","2","<p style=""font-size: 70pt;"">+</p>","null","","","","","","","","","","","","",""
"","","","","","","","","","","","Stimulus Presentation","443","2.1.0","325596","65957236b312488ff83e9ad8","Prolific","1","","null","","62","2","","null","313","351","313","38","e","false","3.6499999999999995","","","","","",""
"","","","","","","","","","","","Stimulus Response","444","2.1.0","326054","65957236b312488ff83e9ad8","Prolific","1","","457","","62","2","","e","","","","","","","","1","","","","",""
"","","","","","","","","","","","Feedback","445","2.1.0","326557","65957236b312488ff83e9ad8","Prolific","1","","null","","62","2","","null","","","","","","","","","","","","",""
"","","","","","","","","","","","Confidence Rating","446","2.1.0","327626","65957236b312488ff83e9ad8","Prolific","1","","1068","","62","2","<h3>Rate your confidence:</h3>
            <div id=""conf1"" class=""conf"" style=""height:25px; width:154px; margin-top:2px; margin-left:15px;""></div>
            <div id=""conf2"" class=""conf"" style=""height:25px; width:154px; margin-top:2px; margin-left:169px;""></div>
